ACCELEROMETER X,ACCELEROMETER Y,ACCELEROMETER Z,LIGHT,PROXIMITY (m),SOUND LEVEL,LOCATION Latitude : ,LOCATION Longitude : ,LOCATION Altitude ( m),LOCATION Altitude-google ( m),LOCATION Speed ( Kmh),LOCATION Accuracy ( m),LOCATION ORIENTATION (°),Satellites in range,Time,YYYY-MO-DD HH-MI-SS_SSS
-0.335,1.723,9.452,24083,1,34.05,,,,NaN,,,,0 / 0,5,2018-11-20 15:30:25:180
-0.43,1.771,9.203,24931,1,34.05,,,,NaN,,,,0 / 0,105,2018-11-20 15:30:25:280
-0.105,1.312,9.634,25175,1,34.05,,,,NaN,,,,0 / 0,205,2018-11-20 15:30:25:380
-0.545,1.704,8.983,25024,1,28.16,,,,NaN,,,,0 / 0,305,2018-11-20 15:30:25:480
-1.168,1.695,8.734,24788,1,28.16,,,,NaN,,,,0 / 0,405,2018-11-20 15:30:25:580
-2.241,0.928,9.826,25325,1,28.16,,,,NaN,,,,0 / 0,505,2018-11-20 15:30:25:680
-0.948,0.555,8.686,26392,1,28.16,,,,NaN,,,,0 / 0,605,2018-11-20 15:30:25:780
-0.249,0.114,10.372,27473,1,49.22,,,,NaN,,,,0 / 0,705,2018-11-20 15:30:25:880
-0.641,-0.316,8.734,29125,1,49.22,,,,NaN,,,,0 / 0,805,2018-11-20 15:30:25:980
0.325,-2.806,8.696,31100,1,49.22,,,,NaN,,,,0 / 0,905,2018-11-20 15:30:26:080
-2.279,-3.601,8.217,34777,1,49.06,,,,NaN,,,,0 / 0,1006,2018-11-20 15:30:26:181
-0.555,-6.569,9.979,46356,1,49.06,,,,NaN,,,,0 / 0,1105,2018-11-20 15:30:26:280
1.187,-6.828,8.284,59393,1,49.06,,,,NaN,,,,0 / 0,1205,2018-11-20 15:30:26:380
0.335,-7.326,7.47,50558,1,43.94,,,,NaN,,,,0 / 0,1305,2018-11-20 15:30:26:480
1.024,-7.585,8.188,5656,0,43.94,,,,NaN,,,,0 / 0,1405,2018-11-20 15:30:26:580
3.955,-8.13,4.376,7400,0,43.94,,,,NaN,,,,0 / 0,1505,2018-11-20 15:30:26:680
1.331,-10.85,6.387,8719,0,44.1,,,,NaN,,,,0 / 0,1605,2018-11-20 15:30:26:780
0.9,-6.454,11.377,29246,1,44.1,,,,NaN,,,,0 / 0,1705,2018-11-20 15:30:26:880
3.284,-6.34,3.907,58375,1,44.1,,,,NaN,,,,0 / 0,1805,2018-11-20 15:30:26:980
4.472,-7.47,2.988,48041,1,34.85,,,,NaN,,,,0 / 0,1905,2018-11-20 15:30:27:080
5.755,-8.839,3.524,40214,1,34.85,,,,NaN,,,,0 / 0,2005,2018-11-20 15:30:27:180
2.873,-7.575,-2.423,41444,0,34.85,,,,NaN,,,,0 / 0,2105,2018-11-20 15:30:27:280
7.259,-7.853,0.373,3784,0,32.73,,,,NaN,,,,0 / 0,2205,2018-11-20 15:30:27:380
4.664,-4.932,-0.067,1717,0,32.73,,,,NaN,,,,0 / 0,2305,2018-11-20 15:30:27:480
6.598,-9.423,2.059,238,0,32.73,,,,NaN,,,,0 / 0,2406,2018-11-20 15:30:27:581
6.78,-6.723,1.455,239,0,33.83,,,,NaN,,,,0 / 0,2506,2018-11-20 15:30:27:681
5.573,-8.15,0.948,243,0,33.83,,,,NaN,,,,0 / 0,2606,2018-11-20 15:30:27:781
6.263,-8.111,1.58,255,0,33.83,,,,NaN,,,,0 / 0,2706,2018-11-20 15:30:27:881
5.209,-7.69,1.714,281,0,37.5,,,,NaN,,,,0 / 0,2806,2018-11-20 15:30:27:981
6.33,-9.069,1.13,324,0,37.5,,,,NaN,,,,0 / 0,2906,2018-11-20 15:30:28:081
2.739,-6.838,1.245,336,0,37.5,,,,NaN,,,,0 / 0,3006,2018-11-20 15:30:28:181
2.786,-9.557,0.344,353,0,37.5,,,,NaN,,,,0 / 0,3106,2018-11-20 15:30:28:281
5.669,-14.739,1.197,285,0,28.85,,,,NaN,,,,0 / 0,3205,2018-11-20 15:30:28:380
-0.536,-11.166,1.043,286,0,28.85,,,,NaN,,,,0 / 0,3305,2018-11-20 15:30:28:480
-0.66,-9.059,-0.229,296,0,28.85,,,,NaN,,,,0 / 0,3406,2018-11-20 15:30:28:581
-0.622,-9.874,0.095,294,0,42.86,,,,NaN,,,,0 / 0,3505,2018-11-20 15:30:28:680
-0.363,-9.443,0.277,288,0,42.86,,,,NaN,,,,0 / 0,3606,2018-11-20 15:30:28:781
0.861,-10.506,-0.229,269,0,42.86,,,,NaN,,,,0 / 0,3706,2018-11-20 15:30:28:881
-0.268,-9.577,-0.114,278,0,59.32,,,,NaN,,,,0 / 0,3806,2018-11-20 15:30:28:981
-0.124,-9.807,0.565,266,0,59.32,,,,NaN,,,,0 / 0,3906,2018-11-20 15:30:29:081
1.312,-10.094,0.181,259,0,59.32,,,,NaN,,,,0 / 0,4006,2018-11-20 15:30:29:181
-1.139,-9.059,-0.143,269,0,53.49,,,,NaN,,,,0 / 0,4106,2018-11-20 15:30:29:281
1.072,-10.812,0.45,278,0,53.49,,,,NaN,,,,0 / 0,4206,2018-11-20 15:30:29:381
-1.206,-9.27,0.699,288,0,53.49,,,,NaN,,,,0 / 0,4306,2018-11-20 15:30:29:481
-2.94,-13.57,3.553,361,0,43.19,,,,NaN,,,,0 / 0,4406,2018-11-20 15:30:29:581
-3.342,-6.416,-0.354,371,0,43.19,,,,NaN,,,,0 / 0,4506,2018-11-20 15:30:29:681
-2.154,-8.198,3.399,366,0,43.19,,,,NaN,,,,0 / 0,4606,2018-11-20 15:30:29:781
-1.043,-9.462,3.811,401,0,42.47,,,,NaN,,,,0 / 0,4706,2018-11-20 15:30:29:881
-1.11,-10.573,3.332,403,0,42.47,,,,NaN,,,,0 / 0,4805,2018-11-20 15:30:29:980
-1.283,-9.328,-1.426,412,0,42.47,,,,NaN,,,,0 / 0,4905,2018-11-20 15:30:30:080
-1.752,-10.18,-0.383,402,0,37.8,,,,NaN,,,,0 / 0,5005,2018-11-20 15:30:30:180
-1.426,-10.17,1.091,406,0,37.8,,,,NaN,,,,0 / 0,5106,2018-11-20 15:30:30:281
-1.733,-9.711,0.66,400,0,37.8,,,,NaN,,,,0 / 0,5206,2018-11-20 15:30:30:381
-1.072,-9.136,1.465,412,0,37.8,,,,NaN,,,,0 / 0,5305,2018-11-20 15:30:30:480
-1.417,-8.284,3.007,430,0,44.95,,,,NaN,,,,0 / 0,5405,2018-11-20 15:30:30:580
-1.723,-7.652,4.395,413,0,44.95,,,,NaN,,,,0 / 0,5505,2018-11-20 15:30:30:680
-1.197,-8.772,4.558,399,0,44.95,,,,NaN,,,,0 / 0,5605,2018-11-20 15:30:30:780
-2.691,-6.627,6.665,379,0,45.99,,,,NaN,,,,0 / 0,5705,2018-11-20 15:30:30:880
-1.666,-6.215,7.431,392,0,45.99,,,,NaN,,,,0 / 0,5806,2018-11-20 15:30:30:981
2.011,-8.533,5.669,363,0,45.99,,,,NaN,,,,0 / 0,5906,2018-11-20 15:30:31:081
0.584,-7.834,6.522,363,0,40.71,,,,NaN,,,,0 / 0,6006,2018-11-20 15:30:31:181
-1.35,-6.215,7.345,364,0,40.71,,,,NaN,,,,0 / 0,6106,2018-11-20 15:30:31:281
-0.881,-4.185,7.814,349,0,40.71,,,,NaN,,,,0 / 0,6206,2018-11-20 15:30:31:381
-2.403,-1.072,8.59,306,1,57.14,,,,NaN,,,,0 / 0,6305,2018-11-20 15:30:31:480
-0.43,-1.723,11.435,187,1,57.14,,,,NaN,,,,0 / 0,6406,2018-11-20 15:30:31:581
-0.967,-0.009,11.712,171,1,57.14,,,,NaN,,,,0 / 0,6506,2018-11-20 15:30:31:681
-1.388,-0.009,13.235,172,1,65.19,,,,NaN,,,,0 / 0,6606,2018-11-20 15:30:31:781
-0.737,-1.369,13.599,166,1,65.19,,,,NaN,,,,0 / 0,6706,2018-11-20 15:30:31:881
-0.632,-2.336,11.291,191,1,65.19,,,,NaN,,,,0 / 0,6805,2018-11-20 15:30:31:980
-0.928,-2.834,9.625,236,1,57.2,,,,NaN,,,,0 / 0,6905,2018-11-20 15:30:32:080
-1.551,-4.97,7.738,284,1,57.2,,,,NaN,,,,0 / 0,7005,2018-11-20 15:30:32:180
-2.135,-7.01,5.736,331,1,57.2,,,,NaN,,,,0 / 0,7106,2018-11-20 15:30:32:281
-1.407,-6.972,4.213,369,1,54.59,,,,NaN,,,,0 / 0,7205,2018-11-20 15:30:32:380
-1.12,-7.949,2.164,383,1,54.59,,,,NaN,,,,0 / 0,7305,2018-11-20 15:30:32:480
-2.346,-9.404,2.346,352,1,54.59,,,,NaN,,,,0 / 0,7405,2018-11-20 15:30:32:580
-1.407,-9.682,0.383,333,1,54.59,,,,NaN,,,,0 / 0,7505,2018-11-20 15:30:32:680
-2.25,-10.419,1.35,328,1,47.43,,,,NaN,,,,0 / 0,7605,2018-11-20 15:30:32:780
-2.94,-11.08,1.235,336,1,47.43,,,,NaN,,,,0 / 0,7705,2018-11-20 15:30:32:880
-2.068,-9.356,2.001,335,1,47.43,,,,NaN,,,,0 / 0,7805,2018-11-20 15:30:32:980
-2.394,-7.546,0.632,351,1,48.13,,,,NaN,,,,0 / 0,7906,2018-11-20 15:30:33:081
-1.81,-7.814,4.089,366,1,48.13,,,,NaN,,,,0 / 0,8005,2018-11-20 15:30:33:180
-1.13,-6.589,7.441,343,1,48.13,,,,NaN,,,,0 / 0,8105,2018-11-20 15:30:33:280
-2.068,-4.06,7.211,291,1,40.35,,,,NaN,,,,0 / 0,8205,2018-11-20 15:30:33:380
-0.986,-4.386,8.159,265,1,40.35,,,,NaN,,,,0 / 0,8305,2018-11-20 15:30:33:480
-1.465,-3.294,9.27,264,1,40.35,,,,NaN,,,,0 / 0,8405,2018-11-20 15:30:33:580
-2.001,-2.614,10.486,232,1,48.93,,,,NaN,,,,0 / 0,8505,2018-11-20 15:30:33:680
-1.053,-2.011,11.664,229,1,48.93,,,,NaN,,,,0 / 0,8606,2018-11-20 15:30:33:781
-1.35,-1.877,12.565,212,1,48.93,,,,NaN,,,,0 / 0,8706,2018-11-20 15:30:33:881
-0.526,-2.681,11.607,219,1,59.32,,,,NaN,,,,0 / 0,8806,2018-11-20 15:30:33:981
-1.168,-3.026,9.682,252,1,59.32,,,,NaN,,,,0 / 0,8906,2018-11-20 15:30:34:081
-1.043,-4.156,8.437,261,1,59.32,,,,NaN,,,,0 / 0,9006,2018-11-20 15:30:34:181
-1.848,-5.842,7.489,295,1,56.64,,,,NaN,,,,0 / 0,9105,2018-11-20 15:30:34:280
-1.81,-7.326,5.095,334,1,56.64,,,,NaN,,,,0 / 0,9206,2018-11-20 15:30:34:381
-2.135,-7.786,3.007,366,1,56.64,,,,NaN,,,,0 / 0,9306,2018-11-20 15:30:34:481
-1.656,-7.834,2.662,367,1,50.24,,,,NaN,,,,0 / 0,9405,2018-11-20 15:30:34:580
-2.365,-10.056,2.135,333,1,50.24,,,,NaN,,,,0 / 0,9506,2018-11-20 15:30:34:681
-1.608,-9.529,-0.076,331,1,50.24,,,,NaN,,,,0 / 0,9606,2018-11-20 15:30:34:781
-2.269,-9.816,0.679,317,1,50.24,,,,NaN,,,,0 / 0,9705,2018-11-20 15:30:34:880
-1.992,-9.797,0.861,295,1,45.16,,,,NaN,,,,0 / 0,9805,2018-11-20 15:30:34:980
-2.078,-9.615,0.526,299,1,45.16,,,,NaN,,,,0 / 0,9905,2018-11-20 15:30:35:080
-2.241,-9.146,2.815,309,1,45.16,,,,NaN,,,,0 / 0,10006,2018-11-20 15:30:35:181
-2.288,-8.542,3.735,340,1,52.8,,,,NaN,,,,0 / 0,10105,2018-11-20 15:30:35:280
-2.336,-8.284,4.405,386,1,52.8,,,,NaN,,,,0 / 0,10205,2018-11-20 15:30:35:380
-1.292,-6.435,6.684,357,1,52.8,,,,NaN,,,,0 / 0,10305,2018-11-20 15:30:35:480
-1.12,-4.884,5.717,331,1,40.57,,,,NaN,,,,0 / 0,10405,2018-11-20 15:30:35:580
-2.499,-4.913,8.437,296,1,40.57,,,,NaN,,,,0 / 0,10506,2018-11-20 15:30:35:681
-0.756,-4.089,8.983,264,1,40.57,,,,NaN,,,,0 / 0,10606,2018-11-20 15:30:35:781
-1.743,-3.361,9.979,209,1,53.63,,,,NaN,,,,0 / 0,10706,2018-11-20 15:30:35:881
-1.992,-3.246,10.86,216,1,53.63,,,,NaN,,,,0 / 0,10805,2018-11-20 15:30:35:980
-2.049,-3.371,11.511,200,1,53.63,,,,NaN,,,,0 / 0,10905,2018-11-20 15:30:36:080
-1.857,-3.457,10.755,205,1,60.25,,,,NaN,,,,0 / 0,11005,2018-11-20 15:30:36:180
-1.829,-4.127,9.059,215,1,60.25,,,,NaN,,,,0 / 0,11105,2018-11-20 15:30:36:280
-1.762,-5.363,7.853,285,1,60.25,,,,NaN,,,,0 / 0,11205,2018-11-20 15:30:36:380
-1.532,-6.972,6.435,318,1,60.25,,,,NaN,,,,0 / 0,11305,2018-11-20 15:30:36:480
-2.078,-7.23,5.564,353,1,48.17,,,,NaN,,,,0 / 0,11405,2018-11-20 15:30:36:580
-1.446,-7.996,3.945,366,1,48.17,,,,NaN,,,,0 / 0,11505,2018-11-20 15:30:36:680
-2.106,-8.245,2.585,384,1,48.17,,,,NaN,,,,0 / 0,11605,2018-11-20 15:30:36:780
-2.729,-9.28,1.417,347,1,49.9,,,,NaN,,,,0 / 0,11705,2018-11-20 15:30:36:880
-2.442,-10.276,1.101,309,1,49.9,,,,NaN,,,,0 / 0,11806,2018-11-20 15:30:36:981
-2.327,-9.787,-0.469,316,1,49.9,,,,NaN,,,,0 / 0,11906,2018-11-20 15:30:37:081
-1.925,-9.625,0.268,314,1,43.15,,,,NaN,,,,0 / 0,12006,2018-11-20 15:30:37:181
-2.106,-9.625,0.191,311,1,43.15,,,,NaN,,,,0 / 0,12106,2018-11-20 15:30:37:281
-1.676,-9.146,1.494,328,1,43.15,,,,NaN,,,,0 / 0,12206,2018-11-20 15:30:37:381
-1.934,-8.571,1.331,348,1,41.89,,,,NaN,,,,0 / 0,12305,2018-11-20 15:30:37:480
-2.039,-8.514,3.639,382,1,41.89,,,,NaN,,,,0 / 0,12405,2018-11-20 15:30:37:580
-2.432,-8.6,4.089,375,1,41.89,,,,NaN,,,,0 / 0,12505,2018-11-20 15:30:37:680
-2.001,-7.096,7.412,350,1,41.89,,,,NaN,,,,0 / 0,12605,2018-11-20 15:30:37:780
-1.819,-5.334,7.987,340,1,40.96,,,,NaN,,,,0 / 0,12705,2018-11-20 15:30:37:880
-1.091,-3.945,7.671,266,1,40.96,,,,NaN,,,,0 / 0,12805,2018-11-20 15:30:37:980
-1.57,-3.715,8.868,247,1,40.96,,,,NaN,,,,0 / 0,12906,2018-11-20 15:30:38:081
-1.168,-2.633,9.203,226,1,56.4,,,,NaN,,,,0 / 0,13006,2018-11-20 15:30:38:181
-2.269,-2.748,11.406,199,1,56.4,,,,NaN,,,,0 / 0,13106,2018-11-20 15:30:38:281
-2.327,-3.332,11.952,179,1,56.4,,,,NaN,,,,0 / 0,13206,2018-11-20 15:30:38:381
-2.241,-3.715,10.783,230,1,56.59,,,,NaN,,,,0 / 0,13306,2018-11-20 15:30:38:481
-1.503,-3.409,9.289,220,1,56.59,,,,NaN,,,,0 / 0,13406,2018-11-20 15:30:38:581
-1.494,-4.97,7.824,269,1,56.59,,,,NaN,,,,0 / 0,13505,2018-11-20 15:30:38:680
-2.126,-6.79,6.129,311,1,56.17,,,,NaN,,,,0 / 0,13605,2018-11-20 15:30:38:780
-1.743,-7.326,5.545,350,1,56.17,,,,NaN,,,,0 / 0,13705,2018-11-20 15:30:38:880
-2.461,-8.514,3.198,351,1,56.17,,,,NaN,,,,0 / 0,13805,2018-11-20 15:30:38:980
-1.695,-8.619,1.494,360,1,56.17,,,,NaN,,,,0 / 0,13906,2018-11-20 15:30:39:081
-3.955,-9.596,1.005,313,1,55.47,,,,NaN,,,,0 / 0,14006,2018-11-20 15:30:39:181
-1.551,-9.893,-0.009,303,1,55.47,,,,NaN,,,,0 / 0,14106,2018-11-20 15:30:39:281
-2.7,-10.199,0.833,300,1,55.47,,,,NaN,,,,0 / 0,14205,2018-11-20 15:30:39:380
-2.135,-9.49,0.229,291,1,48.79,,,,NaN,,,,0 / 0,14305,2018-11-20 15:30:39:480
-2.097,-8.906,1.57,314,1,48.79,,,,NaN,,,,0 / 0,14405,2018-11-20 15:30:39:580
-3.15,-9.807,3.399,322,1,48.79,,,,NaN,,,,0 / 0,14506,2018-11-20 15:30:39:681
-2.739,-8.533,1.465,321,1,48.77,,,,NaN,,,,0 / 0,14606,2018-11-20 15:30:39:781
-2.7,-8.255,4.204,368,1,48.77,,,,NaN,,,,0 / 0,14706,2018-11-20 15:30:39:881
-2.097,-7.719,5.181,386,1,48.77,,,,NaN,,,,0 / 0,14806,2018-11-20 15:30:39:981
-1.484,-6.933,6.445,379,1,45.48,,,,NaN,,,,0 / 0,14905,2018-11-20 15:30:40:080
-1.302,-6.33,7.422,361,1,45.48,,,,NaN,,,,0 / 0,15005,2018-11-20 15:30:40:180
-0.909,-4.788,7.853,333,1,45.48,,,,NaN,,,,0 / 0,15105,2018-11-20 15:30:40:280
-2.815,-3.409,8.638,270,1,52.27,,,,NaN,,,,0 / 0,15205,2018-11-20 15:30:40:380
-1.063,-3.39,9.529,207,1,52.27,,,,NaN,,,,0 / 0,15306,2018-11-20 15:30:40:481
-0.938,-2.863,11.281,202,1,52.27,,,,NaN,,,,0 / 0,15406,2018-11-20 15:30:40:581
-1.953,-2.719,12.191,178,1,57.29,,,,NaN,,,,0 / 0,15506,2018-11-20 15:30:40:681
-1.513,-2.968,11.301,199,1,57.29,,,,NaN,,,,0 / 0,15606,2018-11-20 15:30:40:781
-1.992,-3.782,9.232,218,1,57.29,,,,NaN,,,,0 / 0,15705,2018-11-20 15:30:40:880
-1.963,-4.807,7.767,248,1,55.21,,,,NaN,,,,0 / 0,15805,2018-11-20 15:30:40:980
-2.078,-5.564,7.039,317,1,55.21,,,,NaN,,,,0 / 0,15905,2018-11-20 15:30:41:080
-1.781,-6.866,5.736,368,1,55.21,,,,NaN,,,,0 / 0,16005,2018-11-20 15:30:41:180
-2.403,-8.083,2.652,388,1,55.21,,,,NaN,,,,0 / 0,16105,2018-11-20 15:30:41:280
-2.068,-7.776,1.494,350,1,54.74,,,,NaN,,,,0 / 0,16205,2018-11-20 15:30:41:380
-2.48,-10.199,2.49,305,1,54.74,,,,NaN,,,,0 / 0,16305,2018-11-20 15:30:41:480
-2.777,-9.51,0.708,291,1,54.74,,,,NaN,,,,0 / 0,16405,2018-11-20 15:30:41:580
-2.394,-9.816,0.766,302,1,52.6,,,,NaN,,,,0 / 0,16505,2018-11-20 15:30:41:680
-1.762,-9.395,-0.019,309,1,52.6,,,,NaN,,,,0 / 0,16605,2018-11-20 15:30:41:780
-2.403,-9.414,1.063,312,1,52.6,,,,NaN,,,,0 / 0,16705,2018-11-20 15:30:41:880
-2.202,-8.705,3.466,333,1,44.71,,,,NaN,,,,0 / 0,16806,2018-11-20 15:30:41:981
-2.02,-8.274,5.219,346,1,44.71,,,,NaN,,,,0 / 0,16906,2018-11-20 15:30:42:081
-3.466,-7.814,4.893,377,1,44.71,,,,NaN,,,,0 / 0,17006,2018-11-20 15:30:42:181
-3.687,-7.383,6.636,375,1,52.62,,,,NaN,,,,0 / 0,17107,2018-11-20 15:30:42:282
-2.375,-6.627,7.288,366,1,52.62,,,,NaN,,,,0 / 0,17206,2018-11-20 15:30:42:381
-2.327,-4.711,7.757,344,1,52.62,,,,NaN,,,,0 / 0,17305,2018-11-20 15:30:42:480
-0.804,-4.395,8.437,267,1,53.31,,,,NaN,,,,0 / 0,17406,2018-11-20 15:30:42:581
-1.082,-3.792,9.127,236,1,53.31,,,,NaN,,,,0 / 0,17506,2018-11-20 15:30:42:681
-1.877,-3.284,10.046,210,1,53.31,,,,NaN,,,,0 / 0,17606,2018-11-20 15:30:42:781
-1.925,-3.735,11.415,186,1,58.32,,,,NaN,,,,0 / 0,17705,2018-11-20 15:30:42:880
-2.308,-3.399,10.582,197,1,58.32,,,,NaN,,,,0 / 0,17805,2018-11-20 15:30:42:980
-1.953,-3.572,9.605,224,1,58.32,,,,NaN,,,,0 / 0,17905,2018-11-20 15:30:43:080
-2.116,-4.089,8.715,264,1,58.91,,,,NaN,,,,0 / 0,18006,2018-11-20 15:30:43:181
-2.413,-6.11,8.293,300,1,58.91,,,,NaN,,,,0 / 0,18106,2018-11-20 15:30:43:281
-2.758,-6.905,6.234,334,1,58.91,,,,NaN,,,,0 / 0,18205,2018-11-20 15:30:43:380
-2.892,-8.111,3.486,364,1,58.91,,,,NaN,,,,0 / 0,18305,2018-11-20 15:30:43:480
-2.384,-7.594,2.288,379,1,53.46,,,,NaN,,,,0 / 0,18405,2018-11-20 15:30:43:580
-2.26,-9.241,2.499,324,1,53.46,,,,NaN,,,,0 / 0,18505,2018-11-20 15:30:43:680
-3.055,-10.036,0.871,322,1,53.46,,,,NaN,,,,0 / 0,18605,2018-11-20 15:30:43:780
-2.748,-9.883,0.258,327,1,48.51,,,,NaN,,,,0 / 0,18705,2018-11-20 15:30:43:880
-2.499,-9.701,0.555,314,1,48.51,,,,NaN,,,,0 / 0,18805,2018-11-20 15:30:43:980
-2.432,-9.692,0.708,313,1,48.51,,,,NaN,,,,0 / 0,18906,2018-11-20 15:30:44:081
-2.834,-8.265,1.35,344,1,47.08,,,,NaN,,,,0 / 0,19006,2018-11-20 15:30:44:181
-0.612,-7.623,3.476,361,1,47.08,,,,NaN,,,,0 / 0,19105,2018-11-20 15:30:44:280
-2.365,-7.843,4.357,354,1,47.08,,,,NaN,,,,0 / 0,19205,2018-11-20 15:30:44:380
-2.001,-7.403,5.669,379,1,37.43,,,,NaN,,,,0 / 0,19305,2018-11-20 15:30:44:480
-2.097,-6.732,7.316,339,1,37.43,,,,NaN,,,,0 / 0,19405,2018-11-20 15:30:44:580
-1.733,-5.056,8.035,285,1,37.43,,,,NaN,,,,0 / 0,19505,2018-11-20 15:30:44:680
-1.58,-4.06,9.605,254,1,52.28,,,,NaN,,,,0 / 0,19605,2018-11-20 15:30:44:780
-1.57,-2.729,9.308,235,1,52.28,,,,NaN,,,,0 / 0,19705,2018-11-20 15:30:44:880
-2.557,-2.7,10.85,213,1,52.28,,,,NaN,,,,0 / 0,19806,2018-11-20 15:30:44:981
-2.355,-2.71,12.249,200,1,55.95,,,,NaN,,,,0 / 0,19905,2018-11-20 15:30:45:080
-1.771,-2.566,11.741,198,1,55.95,,,,NaN,,,,0 / 0,20006,2018-11-20 15:30:45:181
-1.024,-2.767,9.826,218,1,55.95,,,,NaN,,,,0 / 0,20105,2018-11-20 15:30:45:280
-1.733,-3.917,7.853,241,1,57.21,,,,NaN,,,,0 / 0,20206,2018-11-20 15:30:45:381
-2.413,-5.114,7.077,284,1,57.21,,,,NaN,,,,0 / 0,20305,2018-11-20 15:30:45:480
-2.394,-7.451,5.612,315,1,57.21,,,,NaN,,,,0 / 0,20406,2018-11-20 15:30:45:581
-2.461,-8.169,3.352,329,1,57.21,,,,NaN,,,,0 / 0,20506,2018-11-20 15:30:45:681
-2.087,-7.585,2.528,327,1,55.23,,,,NaN,,,,0 / 0,20606,2018-11-20 15:30:45:781
-3.352,-9.328,1.867,300,1,55.23,,,,NaN,,,,0 / 0,20706,2018-11-20 15:30:45:881
-1.925,-10.649,1.637,272,1,55.23,,,,NaN,,,,0 / 0,20806,2018-11-20 15:30:45:981
-2.892,-9.653,-0.086,268,1,49.57,,,,NaN,,,,0 / 0,20905,2018-11-20 15:30:46:080
-1.235,-8.964,-0.114,281,1,49.57,,,,NaN,,,,0 / 0,21005,2018-11-20 15:30:46:180
-2.308,-9.385,0.871,269,1,49.57,,,,NaN,,,,0 / 0,21105,2018-11-20 15:30:46:280
-2.643,-9.902,3.447,287,1,44.27,,,,NaN,,,,0 / 0,21206,2018-11-20 15:30:46:381
-1.704,-8.743,4.204,295,1,44.27,,,,NaN,,,,0 / 0,21306,2018-11-20 15:30:46:481
-0.565,-6.617,4.625,301,1,44.27,,,,NaN,,,,0 / 0,21405,2018-11-20 15:30:46:580
-2.48,-6.866,6.387,321,1,41.67,,,,NaN,,,,0 / 0,21505,2018-11-20 15:30:46:680
-2.461,-4.721,7.7,317,1,41.67,,,,NaN,,,,0 / 0,21606,2018-11-20 15:30:46:781
-1.35,-4.817,8.217,287,1,41.67,,,,NaN,,,,0 / 0,21706,2018-11-20 15:30:46:881
-1.58,-3.112,9.519,276,1,45.58,,,,NaN,,,,0 / 0,21805,2018-11-20 15:30:46:980
-1.446,-2.327,10.046,253,1,45.58,,,,NaN,,,,0 / 0,21906,2018-11-20 15:30:47:081
-2.106,-2.26,11.664,216,1,45.58,,,,NaN,,,,0 / 0,22006,2018-11-20 15:30:47:181
-2.183,-2.25,12.316,223,1,57.41,,,,NaN,,,,0 / 0,22106,2018-11-20 15:30:47:281
-2.174,-2.662,10.898,225,1,57.41,,,,NaN,,,,0 / 0,22205,2018-11-20 15:30:47:380
-1.867,-3.744,9.107,249,1,57.41,,,,NaN,,,,0 / 0,22306,2018-11-20 15:30:47:481
-1.312,-4.395,7.259,274,1,51.74,,,,NaN,,,,0 / 0,22406,2018-11-20 15:30:47:581
-2.748,-6.627,6.78,308,1,51.74,,,,NaN,,,,0 / 0,22505,2018-11-20 15:30:47:680
-2.365,-7.853,4.577,309,1,51.74,,,,NaN,,,,0 / 0,22605,2018-11-20 15:30:47:780
-2.777,-7.489,2.633,282,1,51.74,,,,NaN,,,,0 / 0,22705,2018-11-20 15:30:47:880
-1.695,-9.395,2.308,272,1,56.83,,,,NaN,,,,0 / 0,22806,2018-11-20 15:30:47:981
-3.189,-9.787,0.861,250,1,56.83,,,,NaN,,,,0 / 0,22906,2018-11-20 15:30:48:081
-2.394,-9.845,1.235,264,1,56.83,,,,NaN,,,,0 / 0,23006,2018-11-20 15:30:48:181
-4.405,-11.329,0.785,261,1,58.92,,,,NaN,,,,0 / 0,23105,2018-11-20 15:30:48:280
-3.668,-10.439,0.967,272,1,58.92,,,,NaN,,,,0 / 0,23205,2018-11-20 15:30:48:380
-2.901,-9.376,2.231,279,1,58.92,,,,NaN,,,,0 / 0,23305,2018-11-20 15:30:48:480
-2.298,-9.222,3.476,298,1,46.52,,,,NaN,,,,0 / 0,23405,2018-11-20 15:30:48:580
-1.369,-7.69,2.815,291,1,46.52,,,,NaN,,,,0 / 0,23506,2018-11-20 15:30:48:681
-3.457,-7.623,5.248,298,1,46.52,,,,NaN,,,,0 / 0,23606,2018-11-20 15:30:48:781
-2.758,-6.493,7.757,278,1,46.84,,,,NaN,,,,0 / 0,23706,2018-11-20 15:30:48:881
-1.992,-5.095,8.169,254,1,46.84,,,,NaN,,,,0 / 0,23805,2018-11-20 15:30:48:980
-1.905,-4.769,9.203,246,1,46.84,,,,NaN,,,,0 / 0,23905,2018-11-20 15:30:49:080
-1.273,-3.16,9.864,207,1,59.37,,,,NaN,,,,0 / 0,24005,2018-11-20 15:30:49:180
-1.407,-2.7,10.946,178,1,59.37,,,,NaN,,,,0 / 0,24105,2018-11-20 15:30:49:280
-2.049,-3.648,11.147,176,1,59.37,,,,NaN,,,,0 / 0,24205,2018-11-20 15:30:49:380
-2.231,-3.457,10.659,171,1,56.37,,,,NaN,,,,0 / 0,24305,2018-11-20 15:30:49:480
-2.164,-4.146,9.184,204,1,56.37,,,,NaN,,,,0 / 0,24405,2018-11-20 15:30:49:580
-2.087,-4.759,7.546,223,1,56.37,,,,NaN,,,,0 / 0,24505,2018-11-20 15:30:49:680
-2.375,-5.87,7.087,267,1,56.37,,,,NaN,,,,0 / 0,24605,2018-11-20 15:30:49:780
-2.336,-7.594,5.028,296,1,49.59,,,,NaN,,,,0 / 0,24705,2018-11-20 15:30:49:880
-2.423,-8.561,2.844,301,1,49.59,,,,NaN,,,,0 / 0,24806,2018-11-20 15:30:49:981
-2.011,-8.648,2.308,298,1,49.59,,,,NaN,,,,0 / 0,24905,2018-11-20 15:30:50:080
-3.371,-10.582,1.704,289,1,52.79,,,,NaN,,,,0 / 0,25005,2018-11-20 15:30:50:180
-2.106,-9.96,0.296,288,1,52.79,,,,NaN,,,,0 / 0,25106,2018-11-20 15:30:50:281
-2.585,-9.452,1.254,273,1,52.79,,,,NaN,,,,0 / 0,25206,2018-11-20 15:30:50:381
-2.279,-9.711,-0.009,287,1,63.77,,,,NaN,,,,0 / 0,25306,2018-11-20 15:30:50:481
-3.878,-10.898,1.446,272,1,63.77,,,,NaN,,,,0 / 0,25406,2018-11-20 15:30:50:581
-3.179,-8.514,-1.158,288,1,63.77,,,,NaN,,,,0 / 0,25506,2018-11-20 15:30:50:681
-2.03,-9.433,3.093,287,1,51.35,,,,NaN,,,,0 / 0,25605,2018-11-20 15:30:50:780
-2.241,-8.418,4.893,326,1,51.35,,,,NaN,,,,0 / 0,25705,2018-11-20 15:30:50:880
-2.068,-7.125,5.468,332,1,51.35,,,,NaN,,,,0 / 0,25805,2018-11-20 15:30:50:980
-2.375,-5.229,7.68,328,1,52.57,,,,NaN,,,,0 / 0,25905,2018-11-20 15:30:51:080
-2.949,-5.075,8.753,315,1,52.57,,,,NaN,,,,0 / 0,26006,2018-11-20 15:30:51:181
-2.02,-3.533,9.165,291,1,52.57,,,,NaN,,,,0 / 0,26106,2018-11-20 15:30:51:281
-2.509,-3.304,10.946,297,1,51.6,,,,NaN,,,,0 / 0,26206,2018-11-20 15:30:51:381
-2.413,-3.371,11.808,277,1,51.6,,,,NaN,,,,0 / 0,26306,2018-11-20 15:30:51:481
-2.375,-3.735,10.056,288,1,51.6,,,,NaN,,,,0 / 0,26405,2018-11-20 15:30:51:580
-2.212,-3.476,9.462,304,1,51.6,,,,NaN,,,,0 / 0,26505,2018-11-20 15:30:51:680
-2.183,-4.462,7.278,306,1,59.15,,,,NaN,,,,0 / 0,26605,2018-11-20 15:30:51:780
-1.915,-6.148,6.876,335,1,59.15,,,,NaN,,,,0 / 0,26705,2018-11-20 15:30:51:880
-2.7,-8.475,3.457,312,1,59.15,,,,NaN,,,,0 / 0,26805,2018-11-20 15:30:51:980
-2.126,-7.805,1.848,296,1,55.9,,,,NaN,,,,0 / 0,26906,2018-11-20 15:30:52:081
-2.748,-8.81,2.355,311,1,55.9,,,,NaN,,,,0 / 0,27006,2018-11-20 15:30:52:181
-1.905,-9.261,0.517,310,1,55.9,,,,NaN,,,,0 / 0,27106,2018-11-20 15:30:52:281
-1.398,-10.008,2.039,296,1,56.24,,,,NaN,,,,0 / 0,27206,2018-11-20 15:30:52:381
-2.279,-8.753,-0.794,281,1,56.24,,,,NaN,,,,0 / 0,27306,2018-11-20 15:30:52:481
-2.595,-9.395,0.086,296,1,56.24,,,,NaN,,,,0 / 0,27405,2018-11-20 15:30:52:580
-2.729,-9.768,0.794,295,1,51.3,,,,NaN,,,,0 / 0,27505,2018-11-20 15:30:52:680
-3.026,-8.83,1.302,315,1,51.3,,,,NaN,,,,0 / 0,27605,2018-11-20 15:30:52:780
-1.695,-8.217,1.944,299,1,51.3,,,,NaN,,,,0 / 0,27705,2018-11-20 15:30:52:880
-3.735,-7.795,3.055,325,1,51.3,,,,NaN,,,,0 / 0,27806,2018-11-20 15:30:52:981
-2.336,-6.311,7.307,311,1,42.66,,,,NaN,,,,0 / 0,27906,2018-11-20 15:30:53:081
-2.681,-5.909,8.217,276,1,42.66,,,,NaN,,,,0 / 0,28006,2018-11-20 15:30:53:181
-2.039,-4.405,8.609,258,1,42.66,,,,NaN,,,,0 / 0,28106,2018-11-20 15:30:53:281
-2.03,-2.777,9.529,227,1,49.89,,,,NaN,,,,0 / 0,28206,2018-11-20 15:30:53:381
-0.258,-3.093,9.807,192,1,49.89,,,,NaN,,,,0 / 0,28306,2018-11-20 15:30:53:481
-1.589,-1.197,11.77,161,1,49.89,,,,NaN,,,,0 / 0,28406,2018-11-20 15:30:53:581
-3.227,-2.442,11.856,148,1,62.33,,,,NaN,,,,0 / 0,28506,2018-11-20 15:30:53:681
-2.595,-2.126,10.755,158,1,62.33,,,,NaN,,,,0 / 0,28605,2018-11-20 15:30:53:780
-1.819,-3.926,8.724,191,1,62.33,,,,NaN,,,,0 / 0,28706,2018-11-20 15:30:53:881
-1.944,-4.98,7.862,213,1,57.21,,,,NaN,,,,0 / 0,28805,2018-11-20 15:30:53:980
-2.499,-6.426,7.173,251,1,57.21,,,,NaN,,,,0 / 0,28906,2018-11-20 15:30:54:081
-2.672,-8.341,3.773,297,1,57.21,,,,NaN,,,,0 / 0,29006,2018-11-20 15:30:54:181
-1.963,-6.761,3.064,320,1,57.21,,,,NaN,,,,0 / 0,29106,2018-11-20 15:30:54:281
-3.198,-8.676,2.853,360,1,56.62,,,,NaN,,,,0 / 0,29206,2018-11-20 15:30:54:381
-3.016,-10.4,1.743,347,1,56.62,,,,NaN,,,,0 / 0,29306,2018-11-20 15:30:54:481
-2.518,-10.352,-1.197,346,1,56.62,,,,NaN,,,,0 / 0,29406,2018-11-20 15:30:54:581
-3.064,-10.467,0.852,353,1,54.31,,,,NaN,,,,0 / 0,29506,2018-11-20 15:30:54:681
-1.465,-10.237,0.344,351,1,54.31,,,,NaN,,,,0 / 0,29606,2018-11-20 15:30:54:781
-2.614,-9.845,1.015,346,1,54.31,,,,NaN,,,,0 / 0,29706,2018-11-20 15:30:54:881
-2.106,-8.992,2.882,361,1,43.98,,,,NaN,,,,0 / 0,29806,2018-11-20 15:30:54:981
-2.48,-9.471,4.711,372,1,43.98,,,,NaN,,,,0 / 0,29906,2018-11-20 15:30:55:081
-1.35,-7.383,4.98,320,1,43.98,,,,NaN,,,,0 / 0,30006,2018-11-20 15:30:55:181
-3.179,-6.11,5.746,298,1,44.19,,,,NaN,,,,0 / 0,30106,2018-11-20 15:30:55:281
-2.882,-6.158,8.399,270,1,44.19,,,,NaN,,,,0 / 0,30206,2018-11-20 15:30:55:381
-2.049,-5.028,8.983,204,1,44.19,,,,NaN,,,,0 / 0,30306,2018-11-20 15:30:55:481
-1.992,-3.83,8.37,194,1,44.19,,,,NaN,,,,0 / 0,30405,2018-11-20 15:30:55:580
-2.375,-3.007,9.797,159,1,50.06,,,,NaN,,,,0 / 0,30506,2018-11-20 15:30:55:681
-2.327,-2.547,11.08,133,1,50.06,,,,NaN,,,,0 / 0,30606,2018-11-20 15:30:55:781
-2.921,-2.241,11.569,128,1,50.06,,,,NaN,,,,0 / 0,30705,2018-11-20 15:30:55:880
-2.547,-2.461,11.597,122,1,61.86,,,,NaN,,,,0 / 0,30805,2018-11-20 15:30:55:980
-2.719,-3.361,9.778,131,1,61.86,,,,NaN,,,,0 / 0,30905,2018-11-20 15:30:56:080
-2.135,-4.539,8.466,218,1,61.86,,,,NaN,,,,0 / 0,31005,2018-11-20 15:30:56:180
-2.767,-5.746,7.269,304,1,56.78,,,,NaN,,,,0 / 0,31106,2018-11-20 15:30:56:281
-3.045,-7.278,5.018,329,1,56.78,,,,NaN,,,,0 / 0,31206,2018-11-20 15:30:56:381
-1.589,-8.207,2.231,393,1,56.78,,,,NaN,,,,0 / 0,31306,2018-11-20 15:30:56:481
-2.346,-7.163,1.8,395,1,59.64,,,,NaN,,,,0 / 0,31406,2018-11-20 15:30:56:581
-2.614,-9.95,2.47,407,1,59.64,,,,NaN,,,,0 / 0,31506,2018-11-20 15:30:56:681
-2.413,-9.433,-0.114,381,1,59.64,,,,NaN,,,,0 / 0,31606,2018-11-20 15:30:56:781
-2.643,-9.998,0.239,346,1,55.62,,,,NaN,,,,0 / 0,31706,2018-11-20 15:30:56:881
-2.595,-9.864,0.488,359,1,55.62,,,,NaN,,,,0 / 0,31806,2018-11-20 15:30:56:981
-2.652,-9.385,0.134,359,1,55.62,,,,NaN,,,,0 / 0,31907,2018-11-20 15:30:57:082
-2.413,-8.561,1.743,396,1,49.55,,,,NaN,,,,0 / 0,32006,2018-11-20 15:30:57:181
-3.074,-8.427,1.685,427,1,49.55,,,,NaN,,,,0 / 0,32106,2018-11-20 15:30:57:281
-1.388,-6.617,4.625,426,1,49.55,,,,NaN,,,,0 / 0,32206,2018-11-20 15:30:57:381
-1.953,-6.205,6.387,321,1,42.86,,,,NaN,,,,0 / 0,32305,2018-11-20 15:30:57:480
-2.394,-6.244,7.489,281,1,42.86,,,,NaN,,,,0 / 0,32405,2018-11-20 15:30:57:580
-2.403,-4.156,7.776,230,1,42.86,,,,NaN,,,,0 / 0,32505,2018-11-20 15:30:57:680
-1.848,-3.304,9.318,200,1,53.39,,,,NaN,,,,0 / 0,32606,2018-11-20 15:30:57:781
-2.423,-3.371,9.816,170,1,53.39,,,,NaN,,,,0 / 0,32706,2018-11-20 15:30:57:881
-2.25,-2.576,11.712,178,1,53.39,,,,NaN,,,,0 / 0,32805,2018-11-20 15:30:57:980
-2.346,-3.323,11.981,174,1,56.78,,,,NaN,,,,0 / 0,32905,2018-11-20 15:30:58:080
-2.336,-3.265,10.544,189,1,56.78,,,,NaN,,,,0 / 0,33005,2018-11-20 15:30:58:180
-2.509,-3.782,8.399,216,1,56.78,,,,NaN,,,,0 / 0,33106,2018-11-20 15:30:58:281
-1.79,-5.248,7.585,262,1,56.78,,,,NaN,,,,0 / 0,33206,2018-11-20 15:30:58:381
-2.806,-6.416,6.445,366,1,56.22,,,,NaN,,,,0 / 0,33306,2018-11-20 15:30:58:481
-2.298,-7.489,4.482,405,1,56.22,,,,NaN,,,,0 / 0,33406,2018-11-20 15:30:58:581
-3.438,-8.542,1.474,444,1,56.22,,,,NaN,,,,0 / 0,33505,2018-11-20 15:30:58:680
-2.011,-8.629,1.235,444,1,55.26,,,,NaN,,,,0 / 0,33605,2018-11-20 15:30:58:780
-2.652,-10.544,2.212,390,1,55.26,,,,NaN,,,,0 / 0,33705,2018-11-20 15:30:58:880
-2.442,-9.136,-1.829,336,1,55.26,,,,NaN,,,,0 / 0,33806,2018-11-20 15:30:58:981
-1.934,-9.634,1.187,352,1,55.51,,,,NaN,,,,0 / 0,33906,2018-11-20 15:30:59:081
-1.407,-9.203,0.229,377,1,55.51,,,,NaN,,,,0 / 0,34005,2018-11-20 15:30:59:180
-2.106,-8.437,2.892,370,1,55.51,,,,NaN,,,,0 / 0,34105,2018-11-20 15:30:59:280
-1.838,-7.326,2.997,391,1,53.4,,,,NaN,,,,0 / 0,34205,2018-11-20 15:30:59:380
-3.955,-7.01,5.439,388,1,53.4,,,,NaN,,,,0 / 0,34306,2018-11-20 15:30:59:481
-2.988,-6.253,6.129,321,1,53.4,,,,NaN,,,,0 / 0,34406,2018-11-20 15:30:59:581
-2.959,-5.382,7.69,288,1,43.62,,,,NaN,,,,0 / 0,34506,2018-11-20 15:30:59:681
-1.704,-4.529,7.862,236,1,43.62,,,,NaN,,,,0 / 0,34605,2018-11-20 15:30:59:780
-4.146,-4.089,8.245,203,1,43.62,,,,NaN,,,,0 / 0,34705,2018-11-20 15:30:59:880
-2.71,-2.796,10.352,188,1,54.24,,,,NaN,,,,0 / 0,34805,2018-11-20 15:30:59:980
-2.308,-2.269,11.31,140,1,54.24,,,,NaN,,,,0 / 0,34905,2018-11-20 15:31:00:080
-2.815,-2.739,12.028,135,1,54.24,,,,NaN,,,,0 / 0,35006,2018-11-20 15:31:00:181
-3.055,-3.007,11.128,153,1,58.35,,,,NaN,,,,0 / 0,35106,2018-11-20 15:31:00:281
-2.863,-4.137,8.293,216,1,58.35,,,,NaN,,,,0 / 0,35206,2018-11-20 15:31:00:381
-2.461,-4.846,7.077,256,1,58.35,,,,NaN,,,,0 / 0,35305,2018-11-20 15:31:00:480
-3.553,-6.943,6.186,350,1,52.85,,,,NaN,,,,0 / 0,35405,2018-11-20 15:31:00:580
-2.729,-7.671,3.581,411,1,52.85,,,,NaN,,,,0 / 0,35505,2018-11-20 15:31:00:680
-2.403,-7.805,2.039,416,1,52.85,,,,NaN,,,,0 / 0,35605,2018-11-20 15:31:00:780
-2.413,-9.155,1.714,442,1,52.24,,,,NaN,,,,0 / 0,35706,2018-11-20 15:31:00:881
-4.338,-10.822,0.095,411,1,52.24,,,,NaN,,,,0 / 0,35806,2018-11-20 15:31:00:981
-3.399,-10.142,0.852,354,1,52.24,,,,NaN,,,,0 / 0,35906,2018-11-20 15:31:01:081
-2.164,-9.998,-1.082,370,1,52.77,,,,NaN,,,,0 / 0,36006,2018-11-20 15:31:01:181
-2.317,-10.486,0.44,369,1,52.77,,,,NaN,,,,0 / 0,36106,2018-11-20 15:31:01:281
-2.394,-9.672,0.948,353,1,52.77,,,,NaN,,,,0 / 0,36206,2018-11-20 15:31:01:381
-1.58,-8.236,1.81,368,1,43.02,,,,NaN,,,,0 / 0,36305,2018-11-20 15:31:01:480
-1.455,-8.715,1.838,406,1,43.02,,,,NaN,,,,0 / 0,36405,2018-11-20 15:31:01:580
-2.269,-8.38,3.217,346,1,43.02,,,,NaN,,,,0 / 0,36505,2018-11-20 15:31:01:680
-2.537,-6.656,5.458,342,1,40.5,,,,NaN,,,,0 / 0,36605,2018-11-20 15:31:01:780
-3.15,-6.512,7.192,309,1,40.5,,,,NaN,,,,0 / 0,36705,2018-11-20 15:31:01:880
-2.288,-4.443,7.249,258,1,40.5,,,,NaN,,,,0 / 0,36805,2018-11-20 15:31:01:980
-1.953,-3.447,8.552,189,1,48.25,,,,NaN,,,,0 / 0,36906,2018-11-20 15:31:02:081
-2.25,-2.298,9.72,191,1,48.25,,,,NaN,,,,0 / 0,37006,2018-11-20 15:31:02:181
-0.45,-2.202,12.977,186,1,48.25,,,,NaN,,,,0 / 0,37106,2018-11-20 15:31:02:281
-4.099,-2.413,12.287,228,1,59,,,,NaN,,,,0 / 0,37206,2018-11-20 15:31:02:381
-3.821,-3.007,10.946,237,1,59,,,,NaN,,,,0 / 0,37305,2018-11-20 15:31:02:480
-2.509,-3.294,9.395,281,1,59,,,,NaN,,,,0 / 0,37405,2018-11-20 15:31:02:580
-2.231,-4.319,7.891,302,1,60.42,,,,NaN,,,,0 / 0,37505,2018-11-20 15:31:02:680
-2.566,-6.225,6.943,359,1,60.42,,,,NaN,,,,0 / 0,37606,2018-11-20 15:31:02:781
-2.221,-7.336,4.491,405,1,60.42,,,,NaN,,,,0 / 0,37706,2018-11-20 15:31:02:881
-2.25,-8.054,2.71,427,0,60.1,,,,NaN,,,,0 / 0,37806,2018-11-20 15:31:02:981
-2.308,-8.073,1.273,389,0,60.1,,,,NaN,,,,0 / 0,37905,2018-11-20 15:31:03:080
-3.878,-9.462,1.503,360,0,60.1,,,,NaN,,,,0 / 0,38005,2018-11-20 15:31:03:180
-3.869,-10.908,0.009,341,0,56.22,,,,NaN,,,,0 / 0,38105,2018-11-20 15:31:03:280
-2.758,-9.385,-1.494,341,1,56.22,,,,NaN,,,,0 / 0,38205,2018-11-20 15:31:03:380
-2.499,-10.209,0.277,383,1,56.22,,,,NaN,,,,0 / 0,38305,2018-11-20 15:31:03:480
-2.461,-9.816,0.948,406,1,50.73,,,,NaN,,,,0 / 0,38405,2018-11-20 15:31:03:580
-1.829,-9.605,2.566,449,1,50.73,,,,NaN,,,,0 / 0,38505,2018-11-20 15:31:03:680
-2.154,-8.561,1.848,465,1,50.73,,,,NaN,,,,0 / 0,38605,2018-11-20 15:31:03:780
-2.461,-7.977,4.654,502,1,36.68,,,,NaN,,,,0 / 0,38706,2018-11-20 15:31:03:881
-2.384,-8.236,5.353,504,1,36.68,,,,NaN,,,,0 / 0,38808,2018-11-20 15:31:03:983
-2.183,-6.215,7.039,430,1,36.68,,,,NaN,,,,0 / 0,38905,2018-11-20 15:31:04:080
-2.844,-5.602,8.159,354,1,44.45,,,,NaN,,,,0 / 0,39005,2018-11-20 15:31:04:180
-2.126,-4.482,8.38,312,1,44.45,,,,NaN,,,,0 / 0,39105,2018-11-20 15:31:04:280
-3.352,-4.462,8.705,271,1,44.45,,,,NaN,,,,0 / 0,39205,2018-11-20 15:31:04:380
-2.279,-2.183,9.069,225,1,59.26,,,,NaN,,,,0 / 0,39306,2018-11-20 15:31:04:481
-2.039,-2.001,11.147,192,1,59.26,,,,NaN,,,,0 / 0,39406,2018-11-20 15:31:04:581
-3.438,-3.265,11.569,192,1,59.26,,,,NaN,,,,0 / 0,39506,2018-11-20 15:31:04:681
-3.399,-3.237,10.87,188,1,59.1,,,,NaN,,,,0 / 0,39605,2018-11-20 15:31:04:780
-2.47,-4.022,8.83,248,1,59.1,,,,NaN,,,,0 / 0,39705,2018-11-20 15:31:04:880
-2.078,-4.568,7.498,296,1,59.1,,,,NaN,,,,0 / 0,39805,2018-11-20 15:31:04:980
-2.767,-5.88,6.818,441,1,52.16,,,,NaN,,,,0 / 0,39906,2018-11-20 15:31:05:081
-2.748,-6.483,5.296,488,1,52.16,,,,NaN,,,,0 / 0,40006,2018-11-20 15:31:05:181
-2.959,-8.293,2.719,498,1,52.16,,,,NaN,,,,0 / 0,40106,2018-11-20 15:31:05:281
-2.02,-7.996,2.078,431,0,51.8,,,,NaN,,,,0 / 0,40205,2018-11-20 15:31:05:380
-3.447,-10.094,1.206,396,0,51.8,,,,NaN,,,,0 / 0,40305,2018-11-20 15:31:05:480
-2.202,-9.174,-0.258,383,0,51.8,,,,NaN,,,,0 / 0,40405,2018-11-20 15:31:05:580
-3.83,-10.975,0.411,366,0,51.63,,,,NaN,,,,0 / 0,40505,2018-11-20 15:31:05:680
-2.336,-9.711,0.086,399,0,51.63,,,,NaN,,,,0 / 0,40606,2018-11-20 15:31:05:781
-3.141,-8.849,2.26,418,0,51.63,,,,NaN,,,,0 / 0,40706,2018-11-20 15:31:05:881
-2.078,-9.251,4.903,435,0,49.41,,,,NaN,,,,0 / 0,40806,2018-11-20 15:31:05:981
0.047,-7.431,5.439,478,0,49.41,,,,NaN,,,,0 / 0,40905,2018-11-20 15:31:06:080
-2.26,-5.794,6.273,479,1,49.41,,,,NaN,,,,0 / 0,41006,2018-11-20 15:31:06:181
-3.045,-5.593,7.728,408,1,44.08,,,,NaN,,,,0 / 0,41106,2018-11-20 15:31:06:281
-1.848,-4.012,8.063,351,1,44.08,,,,NaN,,,,0 / 0,41205,2018-11-20 15:31:06:380
-2.231,-3.294,9.395,315,1,44.08,,,,NaN,,,,0 / 0,41305,2018-11-20 15:31:06:480
-2.039,-2.729,10.209,292,1,58.05,,,,NaN,,,,0 / 0,41405,2018-11-20 15:31:06:580
-3.591,-2.892,10.362,271,1,58.05,,,,NaN,,,,0 / 0,41505,2018-11-20 15:31:06:680
-2.432,-2.068,11.846,275,1,58.05,,,,NaN,,,,0 / 0,41605,2018-11-20 15:31:06:780
-2.853,-2.806,10.984,285,1,59.27,,,,NaN,,,,0 / 0,41705,2018-11-20 15:31:06:880
-2.384,-3.601,9.213,314,1,59.27,,,,NaN,,,,0 / 0,41805,2018-11-20 15:31:06:980
-2.308,-4.884,8.063,376,1,59.27,,,,NaN,,,,0 / 0,41906,2018-11-20 15:31:07:081
-2.834,-5.956,7.048,421,1,54.83,,,,NaN,,,,0 / 0,42006,2018-11-20 15:31:07:181
-2.355,-7.288,5.075,500,1,54.83,,,,NaN,,,,0 / 0,42106,2018-11-20 15:31:07:281
-1.637,-8.016,3.581,510,0,54.83,,,,NaN,,,,0 / 0,42206,2018-11-20 15:31:07:381
-1.915,-7.843,2.423,468,0,54.83,,,,NaN,,,,0 / 0,42306,2018-11-20 15:31:07:481
-2.978,-9.749,1.8,419,0,52.29,,,,NaN,,,,0 / 0,42406,2018-11-20 15:31:07:581
-2.346,-9.471,-0.871,382,0,52.29,,,,NaN,,,,0 / 0,42506,2018-11-20 15:31:07:681
-2.509,-10.084,0.45,387,0,52.29,,,,NaN,,,,0 / 0,42605,2018-11-20 15:31:07:780
-2.585,-9.874,0.258,422,0,52.9,,,,NaN,,,,0 / 0,42706,2018-11-20 15:31:07:881
-2.432,-10.132,2.221,431,0,52.9,,,,NaN,,,,0 / 0,42805,2018-11-20 15:31:07:980
-3.639,-8.82,0.948,471,0,52.9,,,,NaN,,,,0 / 0,42905,2018-11-20 15:31:08:080
-3.572,-7.259,3.476,490,0,43.69,,,,NaN,,,,0 / 0,43005,2018-11-20 15:31:08:180
-2.049,-6.809,5.727,516,0,43.69,,,,NaN,,,,0 / 0,43105,2018-11-20 15:31:08:280
-2.815,-6.34,6.579,471,0,43.69,,,,NaN,,,,0 / 0,43205,2018-11-20 15:31:08:380
-2.748,-4.328,6.905,445,0,41.22,,,,NaN,,,,0 / 0,43305,2018-11-20 15:31:08:480
-1.867,-5.19,8.14,378,1,41.22,,,,NaN,,,,0 / 0,43405,2018-11-20 15:31:08:580
-2.346,-3.495,8.945,325,1,41.22,,,,NaN,,,,0 / 0,43505,2018-11-20 15:31:08:680
-2.202,-2.672,9.998,298,1,50.84,,,,NaN,,,,0 / 0,43605,2018-11-20 15:31:08:780
-3.342,-2.394,11.415,289,1,50.84,,,,NaN,,,,0 / 0,43705,2018-11-20 15:31:08:880
-1.925,-2.729,11.684,277,1,50.84,,,,NaN,,,,0 / 0,43805,2018-11-20 15:31:08:980
-2.509,-3.562,10.295,304,1,60.98,,,,NaN,,,,0 / 0,43906,2018-11-20 15:31:09:081
-2.25,-4.453,8.418,348,1,60.98,,,,NaN,,,,0 / 0,44006,2018-11-20 15:31:09:181
-3.045,-5.554,7.125,389,1,60.98,,,,NaN,,,,0 / 0,44106,2018-11-20 15:31:09:281
-2.652,-7.039,5.573,442,1,54.77,,,,NaN,,,,0 / 0,44206,2018-11-20 15:31:09:381
-2.691,-7.709,3.361,499,0,54.77,,,,NaN,,,,0 / 0,44305,2018-11-20 15:31:09:480
-2.068,-8.073,2.183,474,0,54.77,,,,NaN,,,,0 / 0,44405,2018-11-20 15:31:09:580
-4.395,-8.954,1.034,435,0,54.32,,,,NaN,,,,0 / 0,44505,2018-11-20 15:31:09:680
-2.279,-9.49,0.612,410,0,54.32,,,,NaN,,,,0 / 0,44605,2018-11-20 15:31:09:780
-2.365,-9.433,0.143,383,0,54.32,,,,NaN,,,,0 / 0,44706,2018-11-20 15:31:09:881
-2.624,-8.954,0.344,379,0,55.4,,,,NaN,,,,0 / 0,44806,2018-11-20 15:31:09:981
-2.729,-9.5,1.369,392,0,55.4,,,,NaN,,,,0 / 0,44906,2018-11-20 15:31:10:081
-2.068,-9.117,2.241,414,0,55.4,,,,NaN,,,,0 / 0,45005,2018-11-20 15:31:10:180
-1.216,-9.644,3.773,463,0,47.63,,,,NaN,,,,0 / 0,45105,2018-11-20 15:31:10:280
-3.093,-6.694,3.533,484,0,47.63,,,,NaN,,,,0 / 0,45205,2018-11-20 15:31:10:380
-2.719,-6.636,7.393,500,0,47.63,,,,NaN,,,,0 / 0,45305,2018-11-20 15:31:10:480
-1.819,-5.047,7.058,477,0,42.51,,,,NaN,,,,0 / 0,45406,2018-11-20 15:31:10:581
-2.739,-4.52,8.37,424,1,42.51,,,,NaN,,,,0 / 0,45506,2018-11-20 15:31:10:681
-2.231,-3.035,8.964,385,1,42.51,,,,NaN,,,,0 / 0,45605,2018-11-20 15:31:10:780
-2.317,-3.945,10.036,337,1,52.57,,,,NaN,,,,0 / 0,45705,2018-11-20 15:31:10:880
-2.403,-3.323,11.866,333,1,52.57,,,,NaN,,,,0 / 0,45805,2018-11-20 15:31:10:980
-3.313,-2.739,10.87,333,1,52.57,,,,NaN,,,,0 / 0,45905,2018-11-20 15:31:11:080
-2.604,-3.754,9.615,332,1,56.33,,,,NaN,,,,0 / 0,46006,2018-11-20 15:31:11:181
-2.097,-4.271,8.37,375,1,56.33,,,,NaN,,,,0 / 0,46106,2018-11-20 15:31:11:281
-3.045,-6.301,7.403,410,1,56.33,,,,NaN,,,,0 / 0,46206,2018-11-20 15:31:11:381
-2.786,-7.211,5.583,472,1,57.24,,,,NaN,,,,0 / 0,46305,2018-11-20 15:31:11:480
-2.576,-7.441,3.917,515,1,57.24,,,,NaN,,,,0 / 0,46405,2018-11-20 15:31:11:580
-2.02,-7.767,2.758,515,0,57.24,,,,NaN,,,,0 / 0,46505,2018-11-20 15:31:11:680
-2.327,-8.983,2.451,465,0,52.08,,,,NaN,,,,0 / 0,46606,2018-11-20 15:31:11:781
-3.419,-9.692,0.976,432,0,52.08,,,,NaN,,,,0 / 0,46706,2018-11-20 15:31:11:881
-1.714,-9.739,0.603,418,0,52.08,,,,NaN,,,,0 / 0,46806,2018-11-20 15:31:11:981
-2.183,-9.098,0.191,426,0,53.5,,,,NaN,,,,0 / 0,46905,2018-11-20 15:31:12:080
-2.288,-9.557,0.794,436,0,53.5,,,,NaN,,,,0 / 0,47005,2018-11-20 15:31:12:180
-2.633,-9.376,1.714,433,0,53.5,,,,NaN,,,,0 / 0,47105,2018-11-20 15:31:12:280
-2.566,-8.82,4.453,470,0,40.79,,,,NaN,,,,0 / 0,47205,2018-11-20 15:31:12:380
-0.086,-8.878,3.744,522,0,40.79,,,,NaN,,,,0 / 0,47306,2018-11-20 15:31:12:481
-3.486,-6.665,5.621,547,0,40.79,,,,NaN,,,,0 / 0,47406,2018-11-20 15:31:12:581
-2.298,-6.857,7.087,556,0,42.19,,,,NaN,,,,0 / 0,47506,2018-11-20 15:31:12:681
-3.639,-5.899,8.073,487,0,42.19,,,,NaN,,,,0 / 0,47605,2018-11-20 15:31:12:780
-2.652,-3.888,8.37,487,1,42.19,,,,NaN,,,,0 / 0,47705,2018-11-20 15:31:12:880
-2.087,-3.457,8.715,386,1,47.01,,,,NaN,,,,0 / 0,47805,2018-11-20 15:31:12:980
-2.087,-2.633,10.563,321,1,47.01,,,,NaN,,,,0 / 0,47906,2018-11-20 15:31:13:081
-1.781,-2.394,10.735,299,1,47.01,,,,NaN,,,,0 / 0,48006,2018-11-20 15:31:13:181
-2.432,-2.279,11.799,297,1,53.41,,,,NaN,,,,0 / 0,48106,2018-11-20 15:31:13:281
-2.25,-2.116,10.85,311,1,53.41,,,,NaN,,,,0 / 0,48205,2018-11-20 15:31:13:380
-2.317,-3.179,9.481,333,1,53.41,,,,NaN,,,,0 / 0,48305,2018-11-20 15:31:13:480
-2.241,-4.664,7.881,416,1,50.26,,,,NaN,,,,0 / 0,48405,2018-11-20 15:31:13:580
-2.959,-5.401,6.991,469,1,50.26,,,,NaN,,,,0 / 0,48506,2018-11-20 15:31:13:681
-2.365,-7.326,5.248,522,1,50.26,,,,NaN,,,,0 / 0,48606,2018-11-20 15:31:13:781
-2.308,-7.326,5.305,536,0,56.41,,,,NaN,,,,0 / 0,48706,2018-11-20 15:31:13:881
-2.126,-9.04,2.652,552,0,56.41,,,,NaN,,,,0 / 0,48806,2018-11-20 15:31:13:981
-1.819,-7.757,2.853,511,0,56.41,,,,NaN,,,,0 / 0,48905,2018-11-20 15:31:14:080
-3.064,-10.237,2.384,434,0,56.41,,,,NaN,,,,0 / 0,49005,2018-11-20 15:31:14:180
-3.352,-10.573,-0.249,403,0,46.89,,,,NaN,,,,0 / 0,49105,2018-11-20 15:31:14:280
-2.145,-10.755,0.258,378,0,46.89,,,,NaN,,,,0 / 0,49206,2018-11-20 15:31:14:381
-2.087,-9.845,0.641,396,0,46.89,,,,NaN,,,,0 / 0,49306,2018-11-20 15:31:14:481
-2.442,-9.241,1.676,394,0,55.49,,,,NaN,,,,0 / 0,49406,2018-11-20 15:31:14:581
-2.212,-7.843,2.451,426,0,55.49,,,,NaN,,,,0 / 0,49505,2018-11-20 15:31:14:680
-3.323,-8.676,5.344,446,0,55.49,,,,NaN,,,,0 / 0,49605,2018-11-20 15:31:14:780
-2.509,-7.498,5.439,547,0,46.42,,,,NaN,,,,0 / 0,49705,2018-11-20 15:31:14:880
-2.719,-7.058,5.822,503,0,46.42,,,,NaN,,,,0 / 0,49805,2018-11-20 15:31:14:980
-2.097,-6.119,7.91,516,0,46.42,,,,NaN,,,,0 / 0,49906,2018-11-20 15:31:15:081
-2.288,-4.721,8.284,438,1,43.91,,,,NaN,,,,0 / 0,50005,2018-11-20 15:31:15:180
-2.413,-3.811,8.447,385,1,43.91,,,,NaN,,,,0 / 0,50106,2018-11-20 15:31:15:281
-2.585,-2.729,10.036,342,1,43.91,,,,NaN,,,,0 / 0,50206,2018-11-20 15:31:15:381
-2.882,-2.221,11.368,307,1,53.11,,,,NaN,,,,0 / 0,50306,2018-11-20 15:31:15:481
-2.652,-2.327,11.463,330,1,53.11,,,,NaN,,,,0 / 0,50406,2018-11-20 15:31:15:581
-2.269,-2.528,9.95,349,1,53.11,,,,NaN,,,,0 / 0,50506,2018-11-20 15:31:15:681
-2.442,-3.026,9.241,393,1,55.76,,,,NaN,,,,0 / 0,50606,2018-11-20 15:31:15:781
-2.614,-4.462,7.489,396,1,55.76,,,,NaN,,,,0 / 0,50705,2018-11-20 15:31:15:880
-3.179,-6.512,7.489,442,1,55.76,,,,NaN,,,,0 / 0,50805,2018-11-20 15:31:15:980
-2.806,-7.518,5.449,494,1,57.73,,,,NaN,,,,0 / 0,50906,2018-11-20 15:31:16:081
-2.968,-7.786,3.16,504,1,57.73,,,,NaN,,,,0 / 0,51006,2018-11-20 15:31:16:181
-0.967,-7.805,2.288,491,1,57.73,,,,NaN,,,,0 / 0,51106,2018-11-20 15:31:16:281
-4.012,-9.988,3.189,432,0,54.59,,,,NaN,,,,0 / 0,51206,2018-11-20 15:31:16:381
-2.432,-9.337,-0.43,386,0,54.59,,,,NaN,,,,0 / 0,51306,2018-11-20 15:31:16:481
-2.25,-9.395,0.478,375,0,54.59,,,,NaN,,,,0 / 0,51406,2018-11-20 15:31:16:581
-2.652,-9.012,0.316,390,0,56.52,,,,NaN,,,,0 / 0,51506,2018-11-20 15:31:16:681
-2.978,-9.366,0.526,417,0,56.52,,,,NaN,,,,0 / 0,51606,2018-11-20 15:31:16:781
-1.015,-6.78,2.892,461,0,56.52,,,,NaN,,,,0 / 0,51706,2018-11-20 15:31:16:881
-2.624,-6.991,3.936,480,0,47.85,,,,NaN,,,,0 / 0,51806,2018-11-20 15:31:16:981
-2.71,-7.077,6.186,508,1,47.85,,,,NaN,,,,0 / 0,51905,2018-11-20 15:31:17:080
-2.566,-6.761,6.723,491,1,47.85,,,,NaN,,,,0 / 0,52005,2018-11-20 15:31:17:180
-2.767,-5.698,7.489,468,1,44.41,,,,NaN,,,,0 / 0,52105,2018-11-20 15:31:17:280
-2.154,-4.357,7.69,400,1,44.41,,,,NaN,,,,0 / 0,52206,2018-11-20 15:31:17:381
-2.815,-3.639,8.533,378,1,44.41,,,,NaN,,,,0 / 0,52306,2018-11-20 15:31:17:481
-2.183,-2.384,9.835,327,1,52.07,,,,NaN,,,,0 / 0,52406,2018-11-20 15:31:17:581
-2.241,-2.183,11.004,299,1,52.07,,,,NaN,,,,0 / 0,52505,2018-11-20 15:31:17:680
-2.355,-1.8,11.827,306,1,52.07,,,,NaN,,,,0 / 0,52605,2018-11-20 15:31:17:780
-2.672,-2.767,11.291,307,1,58.03,,,,NaN,,,,0 / 0,52705,2018-11-20 15:31:17:880
-2.346,-3.553,9.807,319,1,58.03,,,,NaN,,,,0 / 0,52805,2018-11-20 15:31:17:980
-2.346,-4.204,7.489,348,1,58.03,,,,NaN,,,,0 / 0,52905,2018-11-20 15:31:18:080
-2.413,-5.995,7.288,446,1,55.33,,,,NaN,,,,0 / 0,53005,2018-11-20 15:31:18:180
-3.782,-7.661,4.415,497,1,55.33,,,,NaN,,,,0 / 0,53105,2018-11-20 15:31:18:280
-1.34,-7.527,2.988,528,0,55.33,,,,NaN,,,,0 / 0,53206,2018-11-20 15:31:18:381
-1.953,-8.217,1.704,480,0,54.74,,,,NaN,,,,0 / 0,53305,2018-11-20 15:31:18:480
-3.763,-9.912,2.25,419,0,54.74,,,,NaN,,,,0 / 0,53405,2018-11-20 15:31:18:580
-2.624,-9.711,0.009,390,0,54.74,,,,NaN,,,,0 / 0,53505,2018-11-20 15:31:18:680
-2.164,-9.538,0.507,400,0,61.07,,,,NaN,,,,0 / 0,53605,2018-11-20 15:31:18:780
-2.585,-9.261,0.938,394,0,61.07,,,,NaN,,,,0 / 0,53705,2018-11-20 15:31:18:880
-3.715,-8.437,1.302,434,0,61.07,,,,NaN,,,,0 / 0,53805,2018-11-20 15:31:18:980
-0.45,-8.724,3.131,460,0,46.56,,,,NaN,,,,0 / 0,53906,2018-11-20 15:31:19:081
-2.269,-8.485,4.597,477,0,46.56,,,,NaN,,,,0 / 0,54006,2018-11-20 15:31:19:181
-3.189,-7.067,5.698,526,0,46.56,,,,NaN,,,,0 / 0,54106,2018-11-20 15:31:19:281
-3.38,-6.091,7.288,526,1,42.59,,,,NaN,,,,0 / 0,54205,2018-11-20 15:31:19:380
-2.183,-4.348,7.336,443,1,42.59,,,,NaN,,,,0 / 0,54305,2018-11-20 15:31:19:480
-2.652,-3.495,8.533,342,1,42.59,,,,NaN,,,,0 / 0,54405,2018-11-20 15:31:19:580
-2.26,-2.231,10.065,292,1,52.56,,,,NaN,,,,0 / 0,54506,2018-11-20 15:31:19:681
-2.221,-1.915,11.32,291,1,52.56,,,,NaN,,,,0 / 0,54606,2018-11-20 15:31:19:781
-1.81,-1.695,11.348,313,1,52.56,,,,NaN,,,,0 / 0,54706,2018-11-20 15:31:19:881
-3.179,-1.963,11.617,306,1,60.03,,,,NaN,,,,0 / 0,54805,2018-11-20 15:31:19:980
-3.045,-3.725,9.586,325,1,60.03,,,,NaN,,,,0 / 0,54905,2018-11-20 15:31:20:080
-2.308,-4.769,7.824,362,1,60.03,,,,NaN,,,,0 / 0,55005,2018-11-20 15:31:20:180
-2.921,-5.066,6.589,426,1,57.61,,,,NaN,,,,0 / 0,55106,2018-11-20 15:31:20:281
-2.988,-7.269,4.616,498,1,57.61,,,,NaN,,,,0 / 0,55206,2018-11-20 15:31:20:381
-2.269,-8.293,2.25,490,1,57.61,,,,NaN,,,,0 / 0,55306,2018-11-20 15:31:20:481
-1.733,-8.13,1.474,441,1,57.24,,,,NaN,,,,0 / 0,55405,2018-11-20 15:31:20:580
-3.897,-10.927,1.513,412,1,57.24,,,,NaN,,,,0 / 0,55505,2018-11-20 15:31:20:680
-2.164,-9.213,-0.574,408,1,57.24,,,,NaN,,,,0 / 0,55605,2018-11-20 15:31:20:780
-2.078,-9.347,-0.162,405,1,61.35,,,,NaN,,,,0 / 0,55706,2018-11-20 15:31:20:881
-2.336,-9.376,1.053,416,1,61.35,,,,NaN,,,,0 / 0,55806,2018-11-20 15:31:20:981
-2.413,-9.682,2.193,479,1,61.35,,,,NaN,,,,0 / 0,55906,2018-11-20 15:31:21:081
-2.509,-7.47,0.095,489,1,42.29,,,,NaN,,,,0 / 0,56005,2018-11-20 15:31:21:180
-1.953,-7.364,4.3,500,1,42.29,,,,NaN,,,,0 / 0,56105,2018-11-20 15:31:21:280
-1.331,-8.293,4.357,499,1,42.29,,,,NaN,,,,0 / 0,56205,2018-11-20 15:31:21:380
-1.752,-6.953,5.334,536,1,44.07,,,,NaN,,,,0 / 0,56305,2018-11-20 15:31:21:480
-2.049,-6.081,7.47,511,1,44.07,,,,NaN,,,,0 / 0,56406,2018-11-20 15:31:21:581
-1.992,-4.472,8.102,400,1,44.07,,,,NaN,,,,0 / 0,56506,2018-11-20 15:31:21:681
-2.135,-3.629,9.232,348,1,48.06,,,,NaN,,,,0 / 0,56605,2018-11-20 15:31:21:780
-2.106,-2.729,10.803,313,1,48.06,,,,NaN,,,,0 / 0,56705,2018-11-20 15:31:21:880
-3.189,-2.873,11.521,282,1,48.06,,,,NaN,,,,0 / 0,56806,2018-11-20 15:31:21:981
-2.47,-2.528,11.779,305,1,60.63,,,,NaN,,,,0 / 0,56905,2018-11-20 15:31:22:080
-2.365,-2.595,10.621,328,1,60.63,,,,NaN,,,,0 / 0,57005,2018-11-20 15:31:22:180
-2.269,-4.233,8.609,355,1,60.63,,,,NaN,,,,0 / 0,57105,2018-11-20 15:31:22:280
-2.308,-5.449,7.661,389,1,45.68,,,,NaN,,,,0 / 0,57206,2018-11-20 15:31:22:381
-3.083,-7.125,6.244,464,1,45.68,,,,NaN,,,,0 / 0,57306,2018-11-20 15:31:22:481
-2.423,-7.575,3.256,501,1,45.68,,,,NaN,,,,0 / 0,57406,2018-11-20 15:31:22:581
-1.963,-7.613,2.126,459,1,57.5,,,,NaN,,,,0 / 0,57506,2018-11-20 15:31:22:681
-3.17,-9.404,2.039,419,1,57.5,,,,NaN,,,,0 / 0,57605,2018-11-20 15:31:22:780
-2.988,-10.027,0.076,407,1,57.5,,,,NaN,,,,0 / 0,57705,2018-11-20 15:31:22:880
-2.442,-11.128,0.335,395,1,57.5,,,,NaN,,,,0 / 0,57806,2018-11-20 15:31:22:981
-2.786,-10.247,-0.737,413,1,55.27,,,,NaN,,,,0 / 0,57906,2018-11-20 15:31:23:081
-2.212,-10.582,0.957,416,1,55.27,,,,NaN,,,,0 / 0,58005,2018-11-20 15:31:23:180
-2.585,-10.113,2.432,442,1,55.27,,,,NaN,,,,0 / 0,58105,2018-11-20 15:31:23:280
-3.84,-7.24,0,494,1,49.28,,,,NaN,,,,0 / 0,58205,2018-11-20 15:31:23:380
-3.419,-6.943,2.461,508,1,49.28,,,,NaN,,,,0 / 0,58306,2018-11-20 15:31:23:481
-3.581,-7.498,4.711,532,1,49.28,,,,NaN,,,,0 / 0,58406,2018-11-20 15:31:23:581
-2.758,-6.617,6.665,546,1,41.9,,,,NaN,,,,0 / 0,58515,2018-11-20 15:31:23:690
-2.336,-5.765,7.757,441,1,41.9,,,,NaN,,,,0 / 0,58606,2018-11-20 15:31:23:781
-1.963,-4.759,7.144,371,1,41.9,,,,NaN,,,,0 / 0,58705,2018-11-20 15:31:23:880
-2.174,-4.06,8.686,309,1,43.58,,,,NaN,,,,0 / 0,58805,2018-11-20 15:31:23:980
-1.819,-2.901,10.161,286,1,43.58,,,,NaN,,,,0 / 0,58905,2018-11-20 15:31:24:080
-2.94,-3.179,11.071,249,1,43.58,,,,NaN,,,,0 / 0,59005,2018-11-20 15:31:24:180
-2.767,-3.15,11.473,275,1,58.38,,,,NaN,,,,0 / 0,59106,2018-11-20 15:31:24:281
-2.997,-3.217,10.218,292,1,58.38,,,,NaN,,,,0 / 0,59206,2018-11-20 15:31:24:381
-2.269,-4.175,8.523,312,1,58.38,,,,NaN,,,,0 / 0,59306,2018-11-20 15:31:24:481
-2.786,-5.411,7.776,356,1,52.02,,,,NaN,,,,0 / 0,59405,2018-11-20 15:31:24:580
-2.375,-7.23,4.558,439,1,52.02,,,,NaN,,,,0 / 0,59505,2018-11-20 15:31:24:680
-2.059,-7.834,3.811,521,1,52.02,,,,NaN,,,,0 / 0,59605,2018-11-20 15:31:24:780
-1.58,-7.853,1.704,488,1,58.08,,,,NaN,,,,0 / 0,59705,2018-11-20 15:31:24:880
-5.621,-8.743,2.844,455,1,58.08,,,,NaN,,,,0 / 0,59805,2018-11-20 15:31:24:980
-2.241,-10.927,-0.66,412,1,58.08,,,,NaN,,,,0 / 0,59905,2018-11-20 15:31:25:080
-3.945,-10.917,-0.766,379,1,54.42,,,,NaN,,,,0 / 0,60006,2018-11-20 15:31:25:181
-2.317,-10.735,-0.019,407,1,54.42,,,,NaN,,,,0 / 0,60106,2018-11-20 15:31:25:281
-3.419,-10.515,0.9,416,1,54.42,,,,NaN,,,,0 / 0,60205,2018-11-20 15:31:25:380
-3.15,-10.668,1.992,439,1,51.68,,,,NaN,,,,0 / 0,60305,2018-11-20 15:31:25:480
-2.145,-9.308,2.557,443,1,51.68,,,,NaN,,,,0 / 0,60405,2018-11-20 15:31:25:580
-2.451,-8.753,2.164,480,1,51.68,,,,NaN,,,,0 / 0,60505,2018-11-20 15:31:25:680
-3.045,-8.581,3.371,520,1,41.07,,,,NaN,,,,0 / 0,60606,2018-11-20 15:31:25:781
-2.796,-5.746,6.052,494,1,41.07,,,,NaN,,,,0 / 0,60706,2018-11-20 15:31:25:881
-2.298,-5.468,7.814,440,1,41.07,,,,NaN,,,,0 / 0,60806,2018-11-20 15:31:25:981
-2.844,-5.257,8.609,384,1,44.81,,,,NaN,,,,0 / 0,60905,2018-11-20 15:31:26:080
-2.269,-2.94,9.213,332,1,44.81,,,,NaN,,,,0 / 0,61006,2018-11-20 15:31:26:181
-3.323,-2.978,10.161,277,1,44.81,,,,NaN,,,,0 / 0,61105,2018-11-20 15:31:26:280
-2.384,-2.739,12.172,263,1,53.28,,,,NaN,,,,0 / 0,61205,2018-11-20 15:31:26:380
-1.915,-2.566,11.617,284,1,53.28,,,,NaN,,,,0 / 0,61305,2018-11-20 15:31:26:480
-3.495,-4.089,8.839,288,1,53.28,,,,NaN,,,,0 / 0,61405,2018-11-20 15:31:26:580
-2.566,-4.424,8.274,331,1,55.18,,,,NaN,,,,0 / 0,61506,2018-11-20 15:31:26:681
-2.949,-6.454,7.307,454,1,55.18,,,,NaN,,,,0 / 0,61606,2018-11-20 15:31:26:781
-2.652,-7.182,4.702,507,1,55.18,,,,NaN,,,,0 / 0,61706,2018-11-20 15:31:26:881
-2.566,-7.68,3.16,520,1,59.23,,,,NaN,,,,0 / 0,61806,2018-11-20 15:31:26:981
-1.905,-7.632,1.465,455,1,59.23,,,,NaN,,,,0 / 0,61906,2018-11-20 15:31:27:081
-3.945,-11.53,2.375,450,1,59.23,,,,NaN,,,,0 / 0,62005,2018-11-20 15:31:27:180
-2.557,-9.874,-0.756,424,1,52.68,,,,NaN,,,,0 / 0,62105,2018-11-20 15:31:27:280
-2.25,-10.831,1.867,420,1,52.68,,,,NaN,,,,0 / 0,62205,2018-11-20 15:31:27:380
-2.49,-10.046,-0.124,419,1,52.68,,,,NaN,,,,0 / 0,62305,2018-11-20 15:31:27:480
-2.614,-9.902,1.513,448,1,52.21,,,,NaN,,,,0 / 0,62405,2018-11-20 15:31:27:580
-2.231,-8.801,1.781,468,1,52.21,,,,NaN,,,,0 / 0,62506,2018-11-20 15:31:27:681
-0.957,-8.763,2.547,492,1,52.21,,,,NaN,,,,0 / 0,62606,2018-11-20 15:31:27:781
-1.704,-6.828,5.037,541,1,40.36,,,,NaN,,,,0 / 0,62706,2018-11-20 15:31:27:881
-1.972,-7.364,5.717,526,1,40.36,,,,NaN,,,,0 / 0,62806,2018-11-20 15:31:27:981
-1.781,-7.058,7.585,488,1,40.36,,,,NaN,,,,0 / 0,62905,2018-11-20 15:31:28:080
-1.168,-5.746,9.155,419,1,42.35,,,,NaN,,,,0 / 0,63005,2018-11-20 15:31:28:180
-2.901,-3.083,9.059,350,1,42.35,,,,NaN,,,,0 / 0,63105,2018-11-20 15:31:28:280
-2.317,-2.911,9.807,256,1,42.35,,,,NaN,,,,0 / 0,63206,2018-11-20 15:31:28:381
-2.221,-2.279,10.831,261,1,56.07,,,,NaN,,,,0 / 0,63306,2018-11-20 15:31:28:481
-1.494,-1.608,12.115,262,1,56.07,,,,NaN,,,,0 / 0,63406,2018-11-20 15:31:28:581
-2.355,-2.825,11.617,261,1,56.07,,,,NaN,,,,0 / 0,63505,2018-11-20 15:31:28:680
-1.455,-3.313,10.008,272,1,55.49,,,,NaN,,,,0 / 0,63605,2018-11-20 15:31:28:780
-2.461,-3.917,8.322,310,1,55.49,,,,NaN,,,,0 / 0,63706,2018-11-20 15:31:28:881
-3.074,-4.817,6.253,356,1,55.49,,,,NaN,,,,0 / 0,63805,2018-11-20 15:31:28:980
-2.547,-7.383,4.884,496,1,55.51,,,,NaN,,,,0 / 0,63905,2018-11-20 15:31:29:080
-2.059,-8.303,3.572,495,1,55.51,,,,NaN,,,,0 / 0,64005,2018-11-20 15:31:29:180
-2.547,-7.776,1.743,509,1,55.51,,,,NaN,,,,0 / 0,64105,2018-11-20 15:31:29:280
-3.361,-9.864,1.867,422,1,50.96,,,,NaN,,,,0 / 0,64206,2018-11-20 15:31:29:381
-2.183,-9.289,-0.517,385,1,50.96,,,,NaN,,,,0 / 0,64306,2018-11-20 15:31:29:481
-2.174,-9.95,0.814,405,1,50.96,,,,NaN,,,,0 / 0,64406,2018-11-20 15:31:29:581
-2.126,-9.318,-0.153,408,1,54.05,,,,NaN,,,,0 / 0,64506,2018-11-20 15:31:29:681
-2.49,-9.586,0.603,411,1,54.05,,,,NaN,,,,0 / 0,64605,2018-11-20 15:31:29:780
-2.94,-9.471,1.034,465,1,54.05,,,,NaN,,,,0 / 0,64705,2018-11-20 15:31:29:880
-3.045,-7.652,2.691,510,1,44.94,,,,NaN,,,,0 / 0,64805,2018-11-20 15:31:29:980
-1.139,-7.565,3.811,499,1,44.94,,,,NaN,,,,0 / 0,64905,2018-11-20 15:31:30:080
-3.246,-7.719,5.487,515,1,44.94,,,,NaN,,,,0 / 0,65005,2018-11-20 15:31:30:180
-2.097,-5.727,7.489,495,1,44.97,,,,NaN,,,,0 / 0,65105,2018-11-20 15:31:30:280
-2.384,-6.244,8.82,401,1,44.97,,,,NaN,,,,0 / 0,65206,2018-11-20 15:31:30:381
-2.26,-4.597,9.107,348,1,44.97,,,,NaN,,,,0 / 0,65306,2018-11-20 15:31:30:481
-3.055,-3.601,8.906,318,1,51.37,,,,NaN,,,,0 / 0,65406,2018-11-20 15:31:30:581
-2.116,-3.419,10.343,300,1,51.37,,,,NaN,,,,0 / 0,65505,2018-11-20 15:31:30:680
-2.978,-3.629,11.377,295,1,51.37,,,,NaN,,,,0 / 0,65605,2018-11-20 15:31:30:780
-2.365,-2.815,11.253,311,1,60.22,,,,NaN,,,,0 / 0,65705,2018-11-20 15:31:30:880
-2.269,-3.591,9.002,331,1,60.22,,,,NaN,,,,0 / 0,65805,2018-11-20 15:31:30:980
-2.863,-4.826,8.083,375,1,60.22,,,,NaN,,,,0 / 0,65906,2018-11-20 15:31:31:081
-2.806,-5.899,7.125,404,1,60.22,,,,NaN,,,,0 / 0,66006,2018-11-20 15:31:31:181
-2.336,-7.23,5.88,458,1,55.73,,,,NaN,,,,0 / 0,66105,2018-11-20 15:31:31:280
-2.25,-7.901,3.495,510,1,55.73,,,,NaN,,,,0 / 0,66205,2018-11-20 15:31:31:380
-3.648,-8.207,1.494,481,1,55.73,,,,NaN,,,,0 / 0,66305,2018-11-20 15:31:31:480
-0.354,-9.902,3.246,466,1,54.89,,,,NaN,,,,0 / 0,66405,2018-11-20 15:31:31:580
-4.194,-9.174,-0.526,390,1,54.89,,,,NaN,,,,0 / 0,66505,2018-11-20 15:31:31:680
-1.704,-9.471,0.498,362,1,54.89,,,,NaN,,,,0 / 0,66605,2018-11-20 15:31:31:780
-2.317,-9.356,0.134,402,1,55.24,,,,NaN,,,,0 / 0,66705,2018-11-20 15:31:31:880
-2.595,-9.577,0.44,455,1,55.24,,,,NaN,,,,0 / 0,66805,2018-11-20 15:31:31:980
-2.442,-9.644,0.957,463,1,55.24,,,,NaN,,,,0 / 0,66906,2018-11-20 15:31:32:081
-1.886,-8.456,2.269,489,1,49.6,,,,NaN,,,,0 / 0,67006,2018-11-20 15:31:32:181
-3.447,-8.485,2.643,483,1,49.6,,,,NaN,,,,0 / 0,67106,2018-11-20 15:31:32:281
-3.102,-7.623,5.114,532,1,49.6,,,,NaN,,,,0 / 0,67206,2018-11-20 15:31:32:381
-2.384,-7.364,5.602,506,1,45.88,,,,NaN,,,,0 / 0,67305,2018-11-20 15:31:32:480
-1.455,-5.468,7.364,466,1,45.88,,,,NaN,,,,0 / 0,67406,2018-11-20 15:31:32:581
-1.905,-4.635,8.025,415,1,45.88,,,,NaN,,,,0 / 0,67506,2018-11-20 15:31:32:681
-2.116,-3.859,8.552,370,1,46.47,,,,NaN,,,,0 / 0,67606,2018-11-20 15:31:32:781
-2.691,-2.786,10.151,338,1,46.47,,,,NaN,,,,0 / 0,67706,2018-11-20 15:31:32:881
-2.403,-2.413,10.841,284,1,46.47,,,,NaN,,,,0 / 0,67805,2018-11-20 15:31:32:980
-2.26,-2.097,11.655,250,1,54.77,,,,NaN,,,,0 / 0,67905,2018-11-20 15:31:33:080
-2.633,-2.327,11.157,269,1,54.77,,,,NaN,,,,0 / 0,68005,2018-11-20 15:31:33:180
-2.442,-2.978,9.711,282,1,54.77,,,,NaN,,,,0 / 0,68105,2018-11-20 15:31:33:280
-2.145,-3.897,7.958,326,1,57.18,,,,NaN,,,,0 / 0,68205,2018-11-20 15:31:33:380
-2.901,-6.234,7.058,460,1,57.18,,,,NaN,,,,0 / 0,68305,2018-11-20 15:31:33:480
-2.719,-7.02,5.861,484,1,57.18,,,,NaN,,,,0 / 0,68405,2018-11-20 15:31:33:580
-2.499,-8.686,3.466,518,1,57.9,,,,NaN,,,,0 / 0,68506,2018-11-20 15:31:33:681
-2.317,-7.489,1.762,494,0,57.9,,,,NaN,,,,0 / 0,68606,2018-11-20 15:31:33:781
-3.974,-10.056,2.576,427,0,57.9,,,,NaN,,,,0 / 0,68705,2018-11-20 15:31:33:880
-2.231,-9.079,-0.498,410,0,50.16,,,,NaN,,,,0 / 0,68805,2018-11-20 15:31:33:980
-2.442,-9.768,0.928,397,1,50.16,,,,NaN,,,,0 / 0,68905,2018-11-20 15:31:34:080
-2.423,-9.356,-0.114,401,1,50.16,,,,NaN,,,,0 / 0,69006,2018-11-20 15:31:34:181
-1.599,-9.653,0.076,419,1,54.2,,,,NaN,,,,0 / 0,69106,2018-11-20 15:31:34:281
-2.327,-9.548,1.101,441,1,54.2,,,,NaN,,,,0 / 0,69206,2018-11-20 15:31:34:381
-2.959,-8.447,3.706,463,1,54.2,,,,NaN,,,,0 / 0,69306,2018-11-20 15:31:34:481
-2.624,-7.824,3.581,495,1,38.55,,,,NaN,,,,0 / 0,69406,2018-11-20 15:31:34:581
-3.476,-7.451,5.784,523,1,38.55,,,,NaN,,,,0 / 0,69506,2018-11-20 15:31:34:681
-2.585,-5.966,6.579,522,1,38.55,,,,NaN,,,,0 / 0,69605,2018-11-20 15:31:34:780
-2.643,-5.545,8.657,473,1,45.69,,,,NaN,,,,0 / 0,69705,2018-11-20 15:31:34:880
-2.432,-2.911,9.05,324,1,45.69,,,,NaN,,,,0 / 0,69806,2018-11-20 15:31:34:981
-1.618,-2.039,9.912,302,1,45.69,,,,NaN,,,,0 / 0,69906,2018-11-20 15:31:35:081
-2.164,-1.953,10.621,259,1,54.54,,,,NaN,,,,0 / 0,70006,2018-11-20 15:31:35:181
-2.336,-2.087,11.856,267,1,54.54,,,,NaN,,,,0 / 0,70106,2018-11-20 15:31:35:281
-2.394,-2.882,11.358,266,1,54.54,,,,NaN,,,,0 / 0,70206,2018-11-20 15:31:35:381
-2.269,-3.419,9.739,294,1,57.32,,,,NaN,,,,0 / 0,70306,2018-11-20 15:31:35:481
-1.877,-4.309,8.236,335,1,57.32,,,,NaN,,,,0 / 0,70406,2018-11-20 15:31:35:581
-2.806,-5.679,7.144,429,1,57.32,,,,NaN,,,,0 / 0,70506,2018-11-20 15:31:35:681
-3.131,-7.163,5.008,474,1,59.31,,,,NaN,,,,0 / 0,70606,2018-11-20 15:31:35:781
-2.327,-8.159,2.614,480,1,59.31,,,,NaN,,,,0 / 0,70706,2018-11-20 15:31:35:881
-2.681,-7.374,2.135,452,0,59.31,,,,NaN,,,,0 / 0,70805,2018-11-20 15:31:35:980
-2.892,-10.209,2.672,393,0,51.91,,,,NaN,,,,0 / 0,70905,2018-11-20 15:31:36:080
-2.585,-9.51,-0.928,383,0,51.91,,,,NaN,,,,0 / 0,71005,2018-11-20 15:31:36:180
-2.729,-10.41,0.296,379,0,51.91,,,,NaN,,,,0 / 0,71105,2018-11-20 15:31:36:280
-2.432,-10.199,-0.028,390,1,51.72,,,,NaN,,,,0 / 0,71206,2018-11-20 15:31:36:381
-2.375,-9.682,0.363,415,1,51.72,,,,NaN,,,,0 / 0,71306,2018-11-20 15:31:36:481
-4.108,-8.226,1.436,460,1,51.72,,,,NaN,,,,0 / 0,71406,2018-11-20 15:31:36:581
-0.804,-8.581,3.361,500,1,40.69,,,,NaN,,,,0 / 0,71505,2018-11-20 15:31:36:680
-6.225,-6.263,5.209,490,1,40.69,,,,NaN,,,,0 / 0,71605,2018-11-20 15:31:36:780
-3.668,-7.048,6.378,500,1,40.69,,,,NaN,,,,0 / 0,71705,2018-11-20 15:31:36:880
-2.135,-5.372,8.341,459,1,47.89,,,,NaN,,,,0 / 0,71805,2018-11-20 15:31:36:980
-1.484,-4.443,8.054,404,1,47.89,,,,NaN,,,,0 / 0,71905,2018-11-20 15:31:37:080
-1.695,-3.581,9.213,363,1,47.89,,,,NaN,,,,0 / 0,72006,2018-11-20 15:31:37:181
-2.921,-2.959,10.199,338,1,53.22,,,,NaN,,,,0 / 0,72106,2018-11-20 15:31:37:281
-2.997,-3.265,10.649,320,1,53.22,,,,NaN,,,,0 / 0,72206,2018-11-20 15:31:37:381
-3.131,-3.352,11.109,307,1,53.22,,,,NaN,,,,0 / 0,72305,2018-11-20 15:31:37:480
-3.62,-4.673,9.634,337,1,53.22,,,,NaN,,,,0 / 0,72405,2018-11-20 15:31:37:580
-2.154,-5.085,8.36,383,1,56.97,,,,NaN,,,,0 / 0,72505,2018-11-20 15:31:37:680
-3.371,-6.531,6.885,465,1,56.97,,,,NaN,,,,0 / 0,72605,2018-11-20 15:31:37:780
-2.423,-7.278,4.625,489,1,56.97,,,,NaN,,,,0 / 0,72705,2018-11-20 15:31:37:880
-1.733,-7.795,2.748,501,1,57.96,,,,NaN,,,,0 / 0,72806,2018-11-20 15:31:37:981
-2.47,-7.575,2.039,466,1,57.96,,,,NaN,,,,0 / 0,72906,2018-11-20 15:31:38:081
-2.106,-10.486,2.48,437,1,57.96,,,,NaN,,,,0 / 0,73006,2018-11-20 15:31:38:181
-2.413,-9.586,-0.727,411,1,50.25,,,,NaN,,,,0 / 0,73105,2018-11-20 15:31:38:280
-3.974,-10.994,-0.421,380,1,50.25,,,,NaN,,,,0 / 0,73205,2018-11-20 15:31:38:380
-2.672,-10.448,0.392,400,1,50.25,,,,NaN,,,,0 / 0,73306,2018-11-20 15:31:38:481
-1.992,-9.998,1.254,395,1,56.53,,,,NaN,,,,0 / 0,73406,2018-11-20 15:31:38:581
-2.011,-8.83,5.2,416,1,56.53,,,,NaN,,,,0 / 0,73506,2018-11-20 15:31:38:681
-0.641,-9.577,4.252,459,1,56.53,,,,NaN,,,,0 / 0,73606,2018-11-20 15:31:38:781
-3.275,-6.972,4.644,495,1,40.13,,,,NaN,,,,0 / 0,73705,2018-11-20 15:31:38:880
-3.102,-6.177,6.665,511,1,40.13,,,,NaN,,,,0 / 0,73805,2018-11-20 15:31:38:980
-2.336,-5.008,7.556,451,1,40.13,,,,NaN,,,,0 / 0,73905,2018-11-20 15:31:39:080
-2.346,-4.52,7.987,387,1,45.17,,,,NaN,,,,0 / 0,74005,2018-11-20 15:31:39:180
-2.183,-3.409,8.782,339,1,45.17,,,,NaN,,,,0 / 0,74106,2018-11-20 15:31:39:281
-1.963,-2.748,10.295,303,1,45.17,,,,NaN,,,,0 / 0,74206,2018-11-20 15:31:39:381
-2.518,-2.834,11.31,289,1,53.23,,,,NaN,,,,0 / 0,74306,2018-11-20 15:31:39:481
-3.409,-3.38,11.138,280,1,53.23,,,,NaN,,,,0 / 0,74406,2018-11-20 15:31:39:581
-2.212,-2.863,10.036,312,1,53.23,,,,NaN,,,,0 / 0,74505,2018-11-20 15:31:39:680
-2.145,-4.319,8.351,346,1,55.1,,,,NaN,,,,0 / 0,74605,2018-11-20 15:31:39:780
-2.997,-5.717,7.202,400,1,55.1,,,,NaN,,,,0 / 0,74705,2018-11-20 15:31:39:880
-2.959,-7.259,4.644,462,1,55.1,,,,NaN,,,,0 / 0,74805,2018-11-20 15:31:39:980
-2.49,-7.364,2.853,503,1,58.43,,,,NaN,,,,0 / 0,74906,2018-11-20 15:31:40:081
-2.403,-8.063,1.053,503,0,58.43,,,,NaN,,,,0 / 0,75006,2018-11-20 15:31:40:181
-2.662,-9.328,1.359,405,0,58.43,,,,NaN,,,,0 / 0,75106,2018-11-20 15:31:40:281
-2.624,-9.845,-0.143,406,0,51.53,,,,NaN,,,,0 / 0,75206,2018-11-20 15:31:40:381
-2.183,-10.209,0.411,407,0,51.53,,,,NaN,,,,0 / 0,75306,2018-11-20 15:31:40:481
-2.844,-9.653,-0.019,407,0,51.53,,,,NaN,,,,0 / 0,75407,2018-11-20 15:31:40:582
-2.384,-9.682,1.312,425,0,57.15,,,,NaN,,,,0 / 0,75505,2018-11-20 15:31:40:680
-3.189,-7.862,2.432,470,0,57.15,,,,NaN,,,,0 / 0,75605,2018-11-20 15:31:40:780
-2.145,-8.111,2.853,489,0,57.15,,,,NaN,,,,0 / 0,75706,2018-11-20 15:31:40:881
-3.198,-8.312,4.29,514,0,39.58,,,,NaN,,,,0 / 0,75806,2018-11-20 15:31:40:981
-3.284,-6.569,6.244,513,1,39.58,,,,NaN,,,,0 / 0,75906,2018-11-20 15:31:41:081
-2.164,-5.296,6.962,480,1,39.58,,,,NaN,,,,0 / 0,76006,2018-11-20 15:31:41:181
-1.762,-4.97,8.782,391,1,43.63,,,,NaN,,,,0 / 0,76105,2018-11-20 15:31:41:280
-2.365,-4.271,8.427,361,1,43.63,,,,NaN,,,,0 / 0,76205,2018-11-20 15:31:41:380
-2.135,-3.572,10.305,335,1,43.63,,,,NaN,,,,0 / 0,76305,2018-11-20 15:31:41:480
-2.959,-3.773,11.703,322,1,54.61,,,,NaN,,,,0 / 0,76405,2018-11-20 15:31:41:580
-2.748,-3.304,11.166,318,1,54.61,,,,NaN,,,,0 / 0,76506,2018-11-20 15:31:41:681
-2.193,-3.917,9.098,342,1,54.61,,,,NaN,,,,0 / 0,76606,2018-11-20 15:31:41:781
-2.375,-4.367,7.508,347,1,56.65,,,,NaN,,,,0 / 0,76706,2018-11-20 15:31:41:881
-3.256,-6.847,6.646,423,1,56.65,,,,NaN,,,,0 / 0,76806,2018-11-20 15:31:41:981
-2.662,-7.422,5.056,506,1,56.65,,,,NaN,,,,0 / 0,76905,2018-11-20 15:31:42:080
-2.499,-8.236,2.853,499,1,58.17,,,,NaN,,,,0 / 0,77005,2018-11-20 15:31:42:180
-2.202,-7.7,0.488,483,1,58.17,,,,NaN,,,,0 / 0,77105,2018-11-20 15:31:42:280
-2.719,-9.864,2.126,432,0,58.17,,,,NaN,,,,0 / 0,77205,2018-11-20 15:31:42:380
-2.461,-9.241,-0.957,385,0,54.1,,,,NaN,,,,0 / 0,77306,2018-11-20 15:31:42:481
-2.212,-10.113,1.245,393,0,54.1,,,,NaN,,,,0 / 0,77406,2018-11-20 15:31:42:581
-1.877,-9.328,0,373,0,54.1,,,,NaN,,,,0 / 0,77505,2018-11-20 15:31:42:680
-2.432,-9.481,1.082,449,0,56.51,,,,NaN,,,,0 / 0,77605,2018-11-20 15:31:42:780
-2.595,-7.661,2.988,487,0,56.51,,,,NaN,,,,0 / 0,77705,2018-11-20 15:31:42:880
0.277,-7.594,3.62,498,0,56.51,,,,NaN,,,,0 / 0,77805,2018-11-20 15:31:42:980
-2.796,-8.724,4.654,544,1,40.98,,,,NaN,,,,0 / 0,77906,2018-11-20 15:31:43:081
-3.313,-7.278,6.742,548,1,40.98,,,,NaN,,,,0 / 0,78006,2018-11-20 15:31:43:181
-2.384,-5.162,7.47,526,1,40.98,,,,NaN,,,,0 / 0,78106,2018-11-20 15:31:43:281
-2.672,-5.114,7.872,484,1,45.26,,,,NaN,,,,0 / 0,78205,2018-11-20 15:31:43:380
-2.279,-3.811,9.146,409,1,45.26,,,,NaN,,,,0 / 0,78305,2018-11-20 15:31:43:480
-2.557,-3.064,10.046,257,1,45.26,,,,NaN,,,,0 / 0,78405,2018-11-20 15:31:43:580
-2.777,-3.17,11.224,207,1,53.59,,,,NaN,,,,0 / 0,78505,2018-11-20 15:31:43:680
-2.834,-3.294,11.339,216,1,53.59,,,,NaN,,,,0 / 0,78606,2018-11-20 15:31:43:781
-2.604,-3.639,10.046,231,1,53.59,,,,NaN,,,,0 / 0,78706,2018-11-20 15:31:43:881
-2.365,-4.721,8.025,294,1,53.22,,,,NaN,,,,0 / 0,78806,2018-11-20 15:31:43:981
-2.442,-5.918,7.336,476,1,53.22,,,,NaN,,,,0 / 0,78905,2018-11-20 15:31:44:080
-2.537,-6.905,5.707,510,1,53.22,,,,NaN,,,,0 / 0,79005,2018-11-20 15:31:44:180
-2.719,-8.054,3.112,536,1,53.22,,,,NaN,,,,0 / 0,79105,2018-11-20 15:31:44:280
-1.867,-8.178,1.857,522,0,56.94,,,,NaN,,,,0 / 0,79205,2018-11-20 15:31:44:380
-2.672,-8.839,2.145,454,0,56.94,,,,NaN,,,,0 / 0,79306,2018-11-20 15:31:44:481
-2.528,-9.289,-0.181,418,0,56.94,,,,NaN,,,,0 / 0,79407,2018-11-20 15:31:44:582
-2.748,-9.653,1.379,412,0,52.53,,,,NaN,,,,0 / 0,79506,2018-11-20 15:31:44:681
-2.106,-9.557,0.804,424,0,52.53,,,,NaN,,,,0 / 0,79606,2018-11-20 15:31:44:781
-2.47,-9.404,0.66,442,0,52.53,,,,NaN,,,,0 / 0,79705,2018-11-20 15:31:44:880
-2.949,-8.657,1.704,450,0,56.95,,,,NaN,,,,0 / 0,79805,2018-11-20 15:31:44:980
0.536,-8.159,3.399,507,0,56.95,,,,NaN,,,,0 / 0,79905,2018-11-20 15:31:45:080
-3.007,-7.383,4.367,549,1,56.95,,,,NaN,,,,0 / 0,80005,2018-11-20 15:31:45:180
-2.116,-7.039,5.612,521,1,44.49,,,,NaN,,,,0 / 0,80105,2018-11-20 15:31:45:280
-2.394,-5.784,7.546,469,1,44.49,,,,NaN,,,,0 / 0,80206,2018-11-20 15:31:45:381
-2.518,-5.123,8.121,419,1,44.49,,,,NaN,,,,0 / 0,80306,2018-11-20 15:31:45:481
-2.585,-4.491,8.514,353,1,46.17,,,,NaN,,,,0 / 0,80405,2018-11-20 15:31:45:580
-2.135,-3.553,9.72,344,1,46.17,,,,NaN,,,,0 / 0,80505,2018-11-20 15:31:45:680
-2.892,-3.735,10.937,319,1,46.17,,,,NaN,,,,0 / 0,80605,2018-11-20 15:31:45:780
-2.853,-3.907,11.119,309,1,54.92,,,,NaN,,,,0 / 0,80706,2018-11-20 15:31:45:881
-2.327,-3.198,10.19,324,1,54.92,,,,NaN,,,,0 / 0,80806,2018-11-20 15:31:45:981
-2.413,-4.635,8.485,371,1,54.92,,,,NaN,,,,0 / 0,80905,2018-11-20 15:31:46:080
-2.087,-5.487,7.661,418,1,53.85,,,,NaN,,,,0 / 0,81006,2018-11-20 15:31:46:181
-2.365,-6.636,6.378,477,1,53.85,,,,NaN,,,,0 / 0,81105,2018-11-20 15:31:46:280
-2.882,-7.7,3.476,516,1,53.85,,,,NaN,,,,0 / 0,81205,2018-11-20 15:31:46:380
-2.317,-7.546,1.963,546,1,55.7,,,,NaN,,,,0 / 0,81305,2018-11-20 15:31:46:480
-2.834,-9.098,2.174,525,0,55.7,,,,NaN,,,,0 / 0,81405,2018-11-20 15:31:46:580
-2.509,-9.73,0.258,431,0,55.7,,,,NaN,,,,0 / 0,81505,2018-11-20 15:31:46:680
-2.336,-10.486,0.411,401,0,52.31,,,,NaN,,,,0 / 0,81606,2018-11-20 15:31:46:781
-2.355,-9.759,-0.967,417,0,52.31,,,,NaN,,,,0 / 0,81706,2018-11-20 15:31:46:881
-2.241,-10.094,0.268,446,0,52.31,,,,NaN,,,,0 / 0,81806,2018-11-20 15:31:46:981
-1.992,-9.356,1.072,457,0,54.26,,,,NaN,,,,0 / 0,81906,2018-11-20 15:31:47:081
-3.064,-7.68,2.921,466,0,54.26,,,,NaN,,,,0 / 0,82006,2018-11-20 15:31:47:181
-1.273,-7.585,3.936,539,0,54.26,,,,NaN,,,,0 / 0,82106,2018-11-20 15:31:47:281
-2.442,-7.556,6.809,539,1,40.55,,,,NaN,,,,0 / 0,82206,2018-11-20 15:31:47:381
-2.394,-7.221,5.296,493,1,40.55,,,,NaN,,,,0 / 0,82306,2018-11-20 15:31:47:481
-2.442,-6.043,7.546,386,1,40.55,,,,NaN,,,,0 / 0,82405,2018-11-20 15:31:47:580
-2.518,-4.989,7.891,321,1,45.54,,,,NaN,,,,0 / 0,82505,2018-11-20 15:31:47:680
-2.212,-3.744,9.127,296,1,45.54,,,,NaN,,,,0 / 0,82606,2018-11-20 15:31:47:781
-2.403,-3.926,10.266,260,1,45.54,,,,NaN,,,,0 / 0,82706,2018-11-20 15:31:47:881
-3.648,-4.185,11.166,245,1,55.23,,,,NaN,,,,0 / 0,82806,2018-11-20 15:31:47:981
-3.361,-4.29,10.448,244,1,55.23,,,,NaN,,,,0 / 0,82906,2018-11-20 15:31:48:081
-3.055,-4.424,8.753,272,1,55.23,,,,NaN,,,,0 / 0,83005,2018-11-20 15:31:48:180
-3.141,-5.698,7.757,356,1,55.04,,,,NaN,,,,0 / 0,83105,2018-11-20 15:31:48:280
-2.815,-6.704,6.454,463,1,55.04,,,,NaN,,,,0 / 0,83206,2018-11-20 15:31:48:381
-2.93,-7.767,3.878,505,1,55.04,,,,NaN,,,,0 / 0,83306,2018-11-20 15:31:48:481
-3.074,-8.207,2.355,517,1,55.55,,,,NaN,,,,0 / 0,83406,2018-11-20 15:31:48:581
-1.963,-8.945,1.264,485,0,55.55,,,,NaN,,,,0 / 0,83505,2018-11-20 15:31:48:680
-3.62,-10.841,1.867,449,0,55.55,,,,NaN,,,,0 / 0,83605,2018-11-20 15:31:48:780
-2.47,-10.075,0.067,431,0,54.89,,,,NaN,,,,0 / 0,83705,2018-11-20 15:31:48:880
-2.537,-9.625,-0.22,412,0,54.89,,,,NaN,,,,0 / 0,83806,2018-11-20 15:31:48:981
-2.614,-9.529,0.814,431,0,54.89,,,,NaN,,,,0 / 0,83905,2018-11-20 15:31:49:080
-2.499,-9.328,1.896,447,0,53.08,,,,NaN,,,,0 / 0,84005,2018-11-20 15:31:49:180
-2.585,-7.202,1.283,485,0,53.08,,,,NaN,,,,0 / 0,84105,2018-11-20 15:31:49:280
-2.403,-6.991,4.98,497,1,53.08,,,,NaN,,,,0 / 0,84206,2018-11-20 15:31:49:381
-2.011,-7.202,5.008,545,1,48.97,,,,NaN,,,,0 / 0,84306,2018-11-20 15:31:49:481
-2.231,-6.407,7.738,470,1,48.97,,,,NaN,,,,0 / 0,84406,2018-11-20 15:31:49:581
-2.26,-3.964,7.987,405,1,48.97,,,,NaN,,,,0 / 0,84506,2018-11-20 15:31:49:681
-2.087,-3.668,9.012,361,1,50.44,,,,NaN,,,,0 / 0,84606,2018-11-20 15:31:49:781
-2.221,-2.566,10.123,327,1,50.44,,,,NaN,,,,0 / 0,84705,2018-11-20 15:31:49:880
-2.154,-2.557,11.301,307,1,50.44,,,,NaN,,,,0 / 0,84805,2018-11-20 15:31:49:980
-2.978,-2.672,11.904,279,1,59.33,,,,NaN,,,,0 / 0,84905,2018-11-20 15:31:50:080
-1.953,-2.624,10.64,311,1,59.33,,,,NaN,,,,0 / 0,85005,2018-11-20 15:31:50:180
-1.992,-3.313,9.443,327,1,59.33,,,,NaN,,,,0 / 0,85106,2018-11-20 15:31:50:281
-2.068,-5.229,8.255,357,1,59.33,,,,NaN,,,,0 / 0,85206,2018-11-20 15:31:50:381
-2.739,-6.445,6.627,443,1,54.3,,,,NaN,,,,0 / 0,85306,2018-11-20 15:31:50:481
-3.237,-7.355,4.903,478,1,54.3,,,,NaN,,,,0 / 0,85406,2018-11-20 15:31:50:581
-2.241,-7.594,3.074,471,1,54.3,,,,NaN,,,,0 / 0,85505,2018-11-20 15:31:50:680
-1.12,-7.585,2.231,471,0,56.57,,,,NaN,,,,0 / 0,85605,2018-11-20 15:31:50:780
-4.357,-11.597,1.877,421,0,56.57,,,,NaN,,,,0 / 0,85705,2018-11-20 15:31:50:880
-2.174,-9.241,-0.976,404,0,56.57,,,,NaN,,,,0 / 0,85805,2018-11-20 15:31:50:980
-2.93,-10.534,0.622,402,0,48.73,,,,NaN,,,,0 / 0,85906,2018-11-20 15:31:51:081
-2.49,-9.5,0.852,403,0,48.73,,,,NaN,,,,0 / 0,86006,2018-11-20 15:31:51:181
-0.325,-8.083,1.091,433,0,48.73,,,,NaN,,,,0 / 0,86106,2018-11-20 15:31:51:281
-5.095,-7.403,4.079,470,0,55.23,,,,NaN,,,,0 / 0,86205,2018-11-20 15:31:51:380
1.676,-7.537,3.495,496,0,55.23,,,,NaN,,,,0 / 0,86305,2018-11-20 15:31:51:480
-2.336,-7.336,5.612,500,0,55.23,,,,NaN,,,,0 / 0,86405,2018-11-20 15:31:51:580
-3.869,-6.474,6.273,443,1,48.99,,,,NaN,,,,0 / 0,86505,2018-11-20 15:31:51:680
-2.748,-5.047,7.604,386,1,48.99,,,,NaN,,,,0 / 0,86606,2018-11-20 15:31:51:781
-2.298,-4.348,8.341,328,1,48.99,,,,NaN,,,,0 / 0,86706,2018-11-20 15:31:51:881
-2.48,-3.294,9.117,294,1,51.32,,,,NaN,,,,0 / 0,86806,2018-11-20 15:31:51:981
-2.662,-2.921,10.573,277,1,51.32,,,,NaN,,,,0 / 0,86906,2018-11-20 15:31:52:081
-2.614,-3.265,11.147,253,1,51.32,,,,NaN,,,,0 / 0,87006,2018-11-20 15:31:52:181
-3.045,-3.304,10.668,262,1,61.3,,,,NaN,,,,0 / 0,87106,2018-11-20 15:31:52:281
-2.825,-3.601,8.897,283,1,61.3,,,,NaN,,,,0 / 0,87205,2018-11-20 15:31:52:380
-2.518,-4.597,7.786,304,1,61.3,,,,NaN,,,,0 / 0,87305,2018-11-20 15:31:52:480
-2.413,-5.899,7.316,364,1,48.2,,,,NaN,,,,0 / 0,87405,2018-11-20 15:31:52:580
-2.739,-7.383,5.277,493,1,48.2,,,,NaN,,,,0 / 0,87505,2018-11-20 15:31:52:680
-2.786,-8.063,2.604,492,1,48.2,,,,NaN,,,,0 / 0,87605,2018-11-20 15:31:52:780
-1.752,-7.623,1.762,492,0,55.29,,,,NaN,,,,0 / 0,87706,2018-11-20 15:31:52:881
-2.844,-9.289,1.925,444,0,55.29,,,,NaN,,,,0 / 0,87806,2018-11-20 15:31:52:981
-1.752,-9.012,0.114,422,0,55.29,,,,NaN,,,,0 / 0,87906,2018-11-20 15:31:53:081
-2.901,-9.548,1.283,414,0,53.34,,,,NaN,,,,0 / 0,88006,2018-11-20 15:31:53:181
-2.346,-9.692,0.383,416,0,53.34,,,,NaN,,,,0 / 0,88106,2018-11-20 15:31:53:281
-2.059,-9.433,1.599,416,0,53.34,,,,NaN,,,,0 / 0,88205,2018-11-20 15:31:53:380
-3.189,-10.237,2.557,454,0,54.83,,,,NaN,,,,0 / 0,88305,2018-11-20 15:31:53:480
-1.8,-8.083,3.955,474,0,54.83,,,,NaN,,,,0 / 0,88405,2018-11-20 15:31:53:580
-2.298,-7.316,6.052,498,0,54.83,,,,NaN,,,,0 / 0,88505,2018-11-20 15:31:53:680
-2.26,-6.273,7.077,488,1,46.19,,,,NaN,,,,0 / 0,88606,2018-11-20 15:31:53:781
-2.528,-5.42,7.46,418,1,46.19,,,,NaN,,,,0 / 0,88705,2018-11-20 15:31:53:880
-2.767,-5.506,8.159,377,1,46.19,,,,NaN,,,,0 / 0,88806,2018-11-20 15:31:53:981
-3.294,-2.863,8.945,346,1,54.92,,,,NaN,,,,0 / 0,88906,2018-11-20 15:31:54:081
-1.848,-2.863,9.864,301,1,54.92,,,,NaN,,,,0 / 0,89006,2018-11-20 15:31:54:181
-2.7,-3.342,11.119,287,1,54.92,,,,NaN,,,,0 / 0,89106,2018-11-20 15:31:54:281
-2.93,-3.533,11.569,272,1,59.27,,,,NaN,,,,0 / 0,89206,2018-11-20 15:31:54:381
-2.978,-2.968,10.324,280,1,59.27,,,,NaN,,,,0 / 0,89305,2018-11-20 15:31:54:480
-2.748,-3.782,8.245,309,1,59.27,,,,NaN,,,,0 / 0,89406,2018-11-20 15:31:54:581
-1.915,-5.248,7.498,400,1,45.7,,,,NaN,,,,0 / 0,89506,2018-11-20 15:31:54:681
-2.624,-6.033,6.675,465,1,45.7,,,,NaN,,,,0 / 0,89605,2018-11-20 15:31:54:780
-2.748,-7.738,4.52,493,1,45.7,,,,NaN,,,,0 / 0,89705,2018-11-20 15:31:54:880
-2.365,-8.14,2.624,487,0,54.98,,,,NaN,,,,0 / 0,89805,2018-11-20 15:31:54:980
-2.652,-7.709,1.388,479,0,54.98,,,,NaN,,,,0 / 0,89905,2018-11-20 15:31:55:080
-4.06,-9.366,1.723,451,0,54.98,,,,NaN,,,,0 / 0,90005,2018-11-20 15:31:55:180
-1.158,-8.916,-0.095,418,0,54.83,,,,NaN,,,,0 / 0,90105,2018-11-20 15:31:55:280
-3.275,-10.621,1.216,430,0,54.83,,,,NaN,,,,0 / 0,90206,2018-11-20 15:31:55:381
-3.141,-9.663,1.426,449,0,54.83,,,,NaN,,,,0 / 0,90306,2018-11-20 15:31:55:481
-2.537,-8.724,3.457,459,0,53.47,,,,NaN,,,,0 / 0,90405,2018-11-20 15:31:55:580
0.191,-7.202,2.26,445,0,53.47,,,,NaN,,,,0 / 0,90505,2018-11-20 15:31:55:680
-3.428,-6.876,5.889,486,0,53.47,,,,NaN,,,,0 / 0,90605,2018-11-20 15:31:55:780
-2.643,-6.799,6.866,470,1,42.18,,,,NaN,,,,0 / 0,90705,2018-11-20 15:31:55:880
-2.279,-5.593,7.546,413,1,42.18,,,,NaN,,,,0 / 0,90805,2018-11-20 15:31:55:980
-1.733,-3.639,8.983,375,1,42.18,,,,NaN,,,,0 / 0,90906,2018-11-20 15:31:56:081
-2.202,-3.198,9.395,320,1,42.18,,,,NaN,,,,0 / 0,91006,2018-11-20 15:31:56:181
-2.346,-2.26,10.439,286,1,49.02,,,,NaN,,,,0 / 0,91105,2018-11-20 15:31:56:280
-2.576,-2.403,11.55,259,1,49.02,,,,NaN,,,,0 / 0,91206,2018-11-20 15:31:56:381
-2.126,-1.656,11.281,273,1,49.02,,,,NaN,,,,0 / 0,91306,2018-11-20 15:31:56:481
-1.81,-2.317,10.563,278,1,60.97,,,,NaN,,,,0 / 0,91406,2018-11-20 15:31:56:581
-2.375,-3.878,8.964,300,1,60.97,,,,NaN,,,,0 / 0,91506,2018-11-20 15:31:56:681
-2.403,-4.941,8.006,352,1,60.97,,,,NaN,,,,0 / 0,91606,2018-11-20 15:31:56:781
-2.892,-6.464,6.282,451,1,47.85,,,,NaN,,,,0 / 0,91706,2018-11-20 15:31:56:881
-2.691,-7.345,4.711,473,1,47.85,,,,NaN,,,,0 / 0,91805,2018-11-20 15:31:56:980
-2.394,-8.466,2.317,495,0,47.85,,,,NaN,,,,0 / 0,91905,2018-11-20 15:31:57:080
-1.79,-8.236,1.283,453,0,56.99,,,,NaN,,,,0 / 0,92005,2018-11-20 15:31:57:180
-2.49,-10.266,2.317,427,0,56.99,,,,NaN,,,,0 / 0,92105,2018-11-20 15:31:57:280
-2.537,-10.132,-1.34,384,0,56.99,,,,NaN,,,,0 / 0,92208,2018-11-20 15:31:57:383
-3.179,-10.477,1.034,404,0,59.14,,,,NaN,,,,0 / 0,92305,2018-11-20 15:31:57:480
-2.681,-10.075,0.766,417,0,59.14,,,,NaN,,,,0 / 0,92405,2018-11-20 15:31:57:580
-2.174,-8.092,2.777,447,0,59.14,,,,NaN,,,,0 / 0,92505,2018-11-20 15:31:57:680
-2.059,-8.466,1.245,466,0,50.78,,,,NaN,,,,0 / 0,92605,2018-11-20 15:31:57:780
-3.572,-7.728,3.984,526,0,50.78,,,,NaN,,,,0 / 0,92705,2018-11-20 15:31:57:880
-1.848,-7.182,6.675,539,1,50.78,,,,NaN,,,,0 / 0,92806,2018-11-20 15:31:57:981
-2.336,-6.56,7.336,517,1,48.92,,,,NaN,,,,0 / 0,92906,2018-11-20 15:31:58:081
-3.045,-4.951,7.977,372,1,48.92,,,,NaN,,,,0 / 0,93006,2018-11-20 15:31:58:181
-2.26,-4.108,8.198,297,1,48.92,,,,NaN,,,,0 / 0,93106,2018-11-20 15:31:58:281
-2.174,-3.141,9.232,268,1,48.09,,,,NaN,,,,0 / 0,93206,2018-11-20 15:31:58:381
-2.719,-3.102,10.601,230,1,48.09,,,,NaN,,,,0 / 0,93306,2018-11-20 15:31:58:481
-2.662,-3.217,11.138,231,1,48.09,,,,NaN,,,,0 / 0,93406,2018-11-20 15:31:58:581
-2.767,-3.553,10.314,251,1,62.05,,,,NaN,,,,0 / 0,93506,2018-11-20 15:31:58:681
-2.595,-3.84,9.165,281,1,62.05,,,,NaN,,,,0 / 0,93606,2018-11-20 15:31:58:781
-2.614,-4.635,7.518,337,1,62.05,,,,NaN,,,,0 / 0,93705,2018-11-20 15:31:58:880
-3.064,-6.215,6.895,391,1,44.79,,,,NaN,,,,0 / 0,93805,2018-11-20 15:31:58:980
-2.71,-6.895,5.593,454,1,44.79,,,,NaN,,,,0 / 0,93905,2018-11-20 15:31:59:080
-3.246,-8.016,2.537,477,1,44.79,,,,NaN,,,,0 / 0,94005,2018-11-20 15:31:59:180
-0.172,-8.159,3.447,493,1,55.9,,,,NaN,,,,0 / 0,94106,2018-11-20 15:31:59:281
-4.29,-9.395,2.518,493,0,55.9,,,,NaN,,,,0 / 0,94206,2018-11-20 15:31:59:381
-1.848,-9.663,0.143,419,0,55.9,,,,NaN,,,,0 / 0,94306,2018-11-20 15:31:59:481
-3.093,-10.161,0.459,433,0,54.75,,,,NaN,,,,0 / 0,94405,2018-11-20 15:31:59:580
-2.672,-9.787,0.239,410,0,54.75,,,,NaN,,,,0 / 0,94505,2018-11-20 15:31:59:680
-2.576,-9.155,1.369,437,0,54.75,,,,NaN,,,,0 / 0,94605,2018-11-20 15:31:59:780
-2.451,-9.988,3.457,455,0,53.39,,,,NaN,,,,0 / 0,94705,2018-11-20 15:31:59:880
-3.275,-8.657,2.633,505,0,53.39,,,,NaN,,,,0 / 0,94806,2018-11-20 15:31:59:981
-2.26,-7.326,6.129,510,0,53.39,,,,NaN,,,,0 / 0,94906,2018-11-20 15:32:00:081
-4.194,-7.02,6.148,476,1,43.92,,,,NaN,,,,0 / 0,95006,2018-11-20 15:32:00:181
-2.557,-5.372,7.278,441,1,43.92,,,,NaN,,,,0 / 0,95106,2018-11-20 15:32:00:281
-2.106,-3.361,8.427,391,1,43.92,,,,NaN,,,,0 / 0,95205,2018-11-20 15:32:00:380
-3.572,-3.007,8.839,344,1,46.52,,,,NaN,,,,0 / 0,95306,2018-11-20 15:32:00:481
-2.394,-3.093,9.921,314,1,46.52,,,,NaN,,,,0 / 0,95406,2018-11-20 15:32:00:581
-2.978,-2.518,11.301,284,1,46.52,,,,NaN,,,,0 / 0,95506,2018-11-20 15:32:00:681
-2.537,-2.71,11.827,281,1,59.65,,,,NaN,,,,0 / 0,95606,2018-11-20 15:32:00:781
-2.748,-2.988,10.889,289,1,59.65,,,,NaN,,,,0 / 0,95706,2018-11-20 15:32:00:881
-1.599,-2.7,9.663,288,1,59.65,,,,NaN,,,,0 / 0,95806,2018-11-20 15:32:00:981
-2.49,-3.811,8.169,311,1,54.95,,,,NaN,,,,0 / 0,95905,2018-11-20 15:32:01:080
-3.706,-7.47,6.541,380,1,54.95,,,,NaN,,,,0 / 0,96005,2018-11-20 15:32:01:180
-2.47,-7.901,4.079,481,1,54.95,,,,NaN,,,,0 / 0,96105,2018-11-20 15:32:01:280
-2.614,-7.958,2.777,470,1,57.42,,,,NaN,,,,0 / 0,96205,2018-11-20 15:32:01:380
-2.011,-7.537,2.106,439,0,57.42,,,,NaN,,,,0 / 0,96306,2018-11-20 15:32:01:481
-5.411,-10.324,1.781,405,0,57.42,,,,NaN,,,,0 / 0,96406,2018-11-20 15:32:01:581
-1.494,-9.653,-0.296,368,0,57.42,,,,NaN,,,,0 / 0,96506,2018-11-20 15:32:01:681
-2.691,-10.515,0.545,386,0,51.31,,,,NaN,,,,0 / 0,96606,2018-11-20 15:32:01:781
-2.719,-9.73,0.402,378,0,51.31,,,,NaN,,,,0 / 0,96706,2018-11-20 15:32:01:881
-3.629,-9.988,2.7,442,0,51.31,,,,NaN,,,,0 / 0,96805,2018-11-20 15:32:01:980
-3.888,-8.121,1.886,453,0,56.42,,,,NaN,,,,0 / 0,96905,2018-11-20 15:32:02:080
-1.561,-7.048,6.809,492,0,56.42,,,,NaN,,,,0 / 0,97005,2018-11-20 15:32:02:180
-2.892,-6.205,5.545,452,1,56.42,,,,NaN,,,,0 / 0,97106,2018-11-20 15:32:02:281
-2.662,-4.252,6.953,401,1,43.04,,,,NaN,,,,0 / 0,97206,2018-11-20 15:32:02:381
-2.997,-4.07,7.929,357,1,43.04,,,,NaN,,,,0 / 0,97306,2018-11-20 15:32:02:481
-1.934,-3.102,9.395,324,1,43.04,,,,NaN,,,,0 / 0,97406,2018-11-20 15:32:02:581
-2.011,-2.652,11.31,294,1,50.43,,,,NaN,,,,0 / 0,97505,2018-11-20 15:32:02:680
-2.643,-3.102,11.253,272,1,50.43,,,,NaN,,,,0 / 0,97605,2018-11-20 15:32:02:780
-2.279,-1.647,12.162,267,1,50.43,,,,NaN,,,,0 / 0,97705,2018-11-20 15:32:02:880
-2.873,-3.227,10.046,267,1,59.46,,,,NaN,,,,0 / 0,97805,2018-11-20 15:32:02:980
-2.432,-4.175,8.782,271,1,59.46,,,,NaN,,,,0 / 0,97905,2018-11-20 15:32:03:080
-2.298,-4.759,7.671,313,1,59.46,,,,NaN,,,,0 / 0,98006,2018-11-20 15:32:03:181
-2.557,-5.564,6.062,441,1,56.98,,,,NaN,,,,0 / 0,98106,2018-11-20 15:32:03:281
-2.145,-8.102,4.606,461,1,56.98,,,,NaN,,,,0 / 0,98206,2018-11-20 15:32:03:381
-2.901,-8.083,2.375,447,0,56.98,,,,NaN,,,,0 / 0,98306,2018-11-20 15:32:03:481
-1.637,-8.609,2.039,417,0,57.09,,,,NaN,,,,0 / 0,98405,2018-11-20 15:32:03:580
-5.401,-9.232,-2.308,378,0,57.09,,,,NaN,,,,0 / 0,98505,2018-11-20 15:32:03:680
-3.399,-12.105,1.264,374,0,57.09,,,,NaN,,,,0 / 0,98605,2018-11-20 15:32:03:780
-1.8,-9.404,-1.58,388,0,52.76,,,,NaN,,,,0 / 0,98705,2018-11-20 15:32:03:880
-2.537,-10.218,1.235,414,0,52.76,,,,NaN,,,,0 / 0,98806,2018-11-20 15:32:03:981
-2.097,-8.945,1.829,450,0,52.76,,,,NaN,,,,0 / 0,98906,2018-11-20 15:32:04:081
-2.624,-8.523,2.566,466,0,50.19,,,,NaN,,,,0 / 0,99006,2018-11-20 15:32:04:181
-2.672,-9.174,5.64,503,0,50.19,,,,NaN,,,,0 / 0,99106,2018-11-20 15:32:04:281
-2.327,-8.427,5.2,518,1,50.19,,,,NaN,,,,0 / 0,99205,2018-11-20 15:32:04:380
-2.815,-6.694,6.387,513,1,44.09,,,,NaN,,,,0 / 0,99305,2018-11-20 15:32:04:480
-2.537,-4.884,7.441,457,1,44.09,,,,NaN,,,,0 / 0,99405,2018-11-20 15:32:04:580
-2.394,-4.204,8.399,365,1,44.09,,,,NaN,,,,0 / 0,99505,2018-11-20 15:32:04:680
-2.308,-2.633,9.663,225,1,50.67,,,,NaN,,,,0 / 0,99606,2018-11-20 15:32:04:781
-2.815,-3.045,10.467,199,1,50.67,,,,NaN,,,,0 / 0,99706,2018-11-20 15:32:04:881
-3.505,-3.792,11.301,184,1,50.67,,,,NaN,,,,0 / 0,99807,2018-11-20 15:32:04:982
-3.572,-3.677,10.563,189,1,61.4,,,,NaN,,,,0 / 0,99905,2018-11-20 15:32:05:080
-2.174,-4.271,9.261,200,1,61.4,,,,NaN,,,,0 / 0,100005,2018-11-20 15:32:05:180
-2.212,-5.315,7.537,386,1,61.4,,,,NaN,,,,0 / 0,100105,2018-11-20 15:32:05:280
-3.294,-7,5.612,444,1,49.91,,,,NaN,,,,0 / 0,100206,2018-11-20 15:32:05:381
-2.604,-8.169,4.06,479,1,49.91,,,,NaN,,,,0 / 0,100306,2018-11-20 15:32:05:481
-1.723,-7.422,2.748,465,0,49.91,,,,NaN,,,,0 / 0,100406,2018-11-20 15:32:05:581
-2.279,-8.542,2.078,427,0,54.51,,,,NaN,,,,0 / 0,100505,2018-11-20 15:32:05:680
-3.85,-8.887,0.996,412,0,54.51,,,,NaN,,,,0 / 0,100605,2018-11-20 15:32:05:780
-1.982,-8.983,0.114,403,0,54.51,,,,NaN,,,,0 / 0,100706,2018-11-20 15:32:05:881
-2.394,-8.916,1.695,416,0,56.02,,,,NaN,,,,0 / 0,100806,2018-11-20 15:32:05:981
-0.785,-9.557,4.309,443,0,56.02,,,,NaN,,,,0 / 0,100905,2018-11-20 15:32:06:080
-1.81,-7.173,1.714,480,0,56.02,,,,NaN,,,,0 / 0,101005,2018-11-20 15:32:06:180
-5.181,-6.828,5.909,530,0,49.32,,,,NaN,,,,0 / 0,101105,2018-11-20 15:32:06:280
-1.857,-7.01,6.435,530,1,49.32,,,,NaN,,,,0 / 0,101205,2018-11-20 15:32:06:380
-3.16,-6.569,7.393,500,1,49.32,,,,NaN,,,,0 / 0,101306,2018-11-20 15:32:06:481
-3.313,-3.352,8.743,438,1,46.27,,,,NaN,,,,0 / 0,101406,2018-11-20 15:32:06:581
-2.327,-3.198,8.954,321,1,46.27,,,,NaN,,,,0 / 0,101506,2018-11-20 15:32:06:681
-2.748,-2.949,10.419,239,1,46.27,,,,NaN,,,,0 / 0,101606,2018-11-20 15:32:06:781
-2.451,-2.595,11.032,199,1,56.32,,,,NaN,,,,0 / 0,101706,2018-11-20 15:32:06:881
-2.423,-2.528,11.607,190,1,56.32,,,,NaN,,,,0 / 0,101805,2018-11-20 15:32:06:980
-2.604,-2.978,9.931,195,1,56.32,,,,NaN,,,,0 / 0,101905,2018-11-20 15:32:07:080
-2.423,-3.945,8.743,222,1,55.06,,,,NaN,,,,0 / 0,102005,2018-11-20 15:32:07:180
-2.547,-5.315,7.278,418,1,55.06,,,,NaN,,,,0 / 0,102105,2018-11-20 15:32:07:280
-3.007,-6.263,5.612,445,1,55.06,,,,NaN,,,,0 / 0,102205,2018-11-20 15:32:07:380
-2.154,-8.332,3.284,430,1,59.87,,,,NaN,,,,0 / 0,102305,2018-11-20 15:32:07:480
-2.499,-8.638,2.106,450,0,59.87,,,,NaN,,,,0 / 0,102406,2018-11-20 15:32:07:581
-2.269,-9.184,1.532,414,0,59.87,,,,NaN,,,,0 / 0,102506,2018-11-20 15:32:07:681
-5.382,-9.203,0.612,390,0,55.35,,,,NaN,,,,0 / 0,102606,2018-11-20 15:32:07:781
-2.288,-10.372,-0.287,396,0,55.35,,,,NaN,,,,0 / 0,102705,2018-11-20 15:32:07:880
-2.719,-10.314,2.039,409,0,55.35,,,,NaN,,,,0 / 0,102805,2018-11-20 15:32:07:980
-1.388,-9.299,1.819,438,0,61.28,,,,NaN,,,,0 / 0,102905,2018-11-20 15:32:08:080
-0.296,-8.81,2.423,453,0,61.28,,,,NaN,,,,0 / 0,103005,2018-11-20 15:32:08:180
-2.336,-7.431,2.7,474,0,61.28,,,,NaN,,,,0 / 0,103105,2018-11-20 15:32:08:280
-3.035,-7.326,6.589,485,1,45.53,,,,NaN,,,,0 / 0,103206,2018-11-20 15:32:08:381
-1.953,-5.976,8.169,458,1,45.53,,,,NaN,,,,0 / 0,103306,2018-11-20 15:32:08:481
-2.308,-4.529,7.891,367,1,45.53,,,,NaN,,,,0 / 0,103406,2018-11-20 15:32:08:581
-2.308,-2.834,9.155,310,1,45.53,,,,NaN,,,,0 / 0,103505,2018-11-20 15:32:08:680
-2.106,-2.47,9.998,265,1,52.68,,,,NaN,,,,0 / 0,103606,2018-11-20 15:32:08:781
-2.451,-2.681,11.396,234,1,52.68,,,,NaN,,,,0 / 0,103705,2018-11-20 15:32:08:880
-2.633,-2.202,12.028,235,1,52.68,,,,NaN,,,,0 / 0,103805,2018-11-20 15:32:08:980
-2.394,-2.624,10.879,229,1,60.05,,,,NaN,,,,0 / 0,103905,2018-11-20 15:32:09:080
-1.915,-3.371,9.251,261,1,60.05,,,,NaN,,,,0 / 0,104006,2018-11-20 15:32:09:181
-2.528,-4.769,7.862,291,1,60.05,,,,NaN,,,,0 / 0,104106,2018-11-20 15:32:09:281
-3.648,-6.972,6.186,404,1,48.92,,,,NaN,,,,0 / 0,104206,2018-11-20 15:32:09:381
-3.045,-8.054,3.888,418,1,48.92,,,,NaN,,,,0 / 0,104306,2018-11-20 15:32:09:481
-1.81,-7.575,2.528,401,0,48.92,,,,NaN,,,,0 / 0,104405,2018-11-20 15:32:09:580
-3.543,-8.466,1.704,393,0,57.02,,,,NaN,,,,0 / 0,104505,2018-11-20 15:32:09:680
-2.49,-9.672,0.689,370,0,57.02,,,,NaN,,,,0 / 0,104605,2018-11-20 15:32:09:780
-2.336,-9.644,0.842,369,0,57.02,,,,NaN,,,,0 / 0,104706,2018-11-20 15:32:09:881
-2.001,-9.682,0.478,361,0,54.77,,,,NaN,,,,0 / 0,104806,2018-11-20 15:32:09:981
-2.288,-10.046,1.187,391,0,54.77,,,,NaN,,,,0 / 0,104905,2018-11-20 15:32:10:080
-2.423,-7.901,1.723,414,0,54.77,,,,NaN,,,,0 / 0,105005,2018-11-20 15:32:10:180
-0.996,-6.847,3.514,442,0,57.59,,,,NaN,,,,0 / 0,105105,2018-11-20 15:32:10:280
-1.733,-8.456,3.802,442,1,57.59,,,,NaN,,,,0 / 0,105206,2018-11-20 15:32:10:381
-3.773,-7.901,5.363,458,1,57.59,,,,NaN,,,,0 / 0,105306,2018-11-20 15:32:10:481
-2.71,-5.679,7.537,446,1,41.96,,,,NaN,,,,0 / 0,105406,2018-11-20 15:32:10:581
-1.829,-3.792,8.341,363,1,41.96,,,,NaN,,,,0 / 0,105506,2018-11-20 15:32:10:681
-2.25,-3.313,8.782,314,1,41.96,,,,NaN,,,,0 / 0,105605,2018-11-20 15:32:10:780
-2.221,-2.863,9.557,247,1,50.93,,,,NaN,,,,0 / 0,105706,2018-11-20 15:32:10:881
-2.355,-3.304,10.831,230,1,50.93,,,,NaN,,,,0 / 0,105806,2018-11-20 15:32:10:981
-2.365,-3.447,11.463,249,1,50.93,,,,NaN,,,,0 / 0,105906,2018-11-20 15:32:11:081
-2.547,-3.658,10.18,245,1,59.82,,,,NaN,,,,0 / 0,106006,2018-11-20 15:32:11:181
-2.308,-4.472,8.274,268,1,59.82,,,,NaN,,,,0 / 0,106106,2018-11-20 15:32:11:281
-2.672,-6.368,6.962,375,1,59.82,,,,NaN,,,,0 / 0,106206,2018-11-20 15:32:11:381
-2.423,-6.838,5.554,454,1,51.03,,,,NaN,,,,0 / 0,106305,2018-11-20 15:32:11:480
-2.346,-7.977,3.505,446,1,51.03,,,,NaN,,,,0 / 0,106405,2018-11-20 15:32:11:580
-1.599,-7.527,2.585,422,0,51.03,,,,NaN,,,,0 / 0,106506,2018-11-20 15:32:11:681
-3.601,-9.146,1.676,402,0,53.43,,,,NaN,,,,0 / 0,106605,2018-11-20 15:32:11:780
-2.049,-9.462,0.392,390,0,53.43,,,,NaN,,,,0 / 0,106705,2018-11-20 15:32:11:880
-2.068,-9.634,0.66,403,0,53.43,,,,NaN,,,,0 / 0,106805,2018-11-20 15:32:11:980
-2.346,-9.107,0.335,409,0,58.81,,,,NaN,,,,0 / 0,106906,2018-11-20 15:32:12:081
-2.777,-9.117,0.718,405,0,58.81,,,,NaN,,,,0 / 0,107006,2018-11-20 15:32:12:181
-2.442,-7.316,3.122,417,0,58.81,,,,NaN,,,,0 / 0,107106,2018-11-20 15:32:12:281
-1.522,-8.408,6.052,442,0,53.95,,,,NaN,,,,0 / 0,107205,2018-11-20 15:32:12:380
-3.208,-8.399,5.516,460,1,53.95,,,,NaN,,,,0 / 0,107305,2018-11-20 15:32:12:480
-4.482,-6.004,5.822,504,1,53.95,,,,NaN,,,,0 / 0,107405,2018-11-20 15:32:12:580
-3.083,-5.104,7.316,430,1,44.5,,,,NaN,,,,0 / 0,107505,2018-11-20 15:32:12:680
-2.806,-4.654,8.274,374,1,44.5,,,,NaN,,,,0 / 0,107605,2018-11-20 15:32:12:780
-2.384,-3.888,8.38,278,1,44.5,,,,NaN,,,,0 / 0,107706,2018-11-20 15:32:12:881
-2.336,-3.15,9.146,240,1,50.67,,,,NaN,,,,0 / 0,107806,2018-11-20 15:32:12:981
-2.365,-2.719,10.86,230,1,50.67,,,,NaN,,,,0 / 0,107906,2018-11-20 15:32:13:081
-1.666,-2.729,11.463,214,1,50.67,,,,NaN,,,,0 / 0,108006,2018-11-20 15:32:13:181
-2.116,-3.112,10.601,230,1,59.82,,,,NaN,,,,0 / 0,108105,2018-11-20 15:32:13:280
-2.394,-3.476,9.376,240,1,59.82,,,,NaN,,,,0 / 0,108205,2018-11-20 15:32:13:380
-2.269,-4.731,8.13,327,1,59.82,,,,NaN,,,,0 / 0,108305,2018-11-20 15:32:13:480
-2.748,-5.861,7.125,382,1,51.2,,,,NaN,,,,0 / 0,108405,2018-11-20 15:32:13:580
-2.566,-6.732,6.656,445,1,51.2,,,,NaN,,,,0 / 0,108506,2018-11-20 15:32:13:681
-2.796,-8.82,3.553,472,1,51.2,,,,NaN,,,,0 / 0,108606,2018-11-20 15:32:13:781
-2.135,-7.728,2.451,460,0,53.08,,,,NaN,,,,0 / 0,108706,2018-11-20 15:32:13:881
-1.187,-8.82,2.231,460,0,53.08,,,,NaN,,,,0 / 0,108805,2018-11-20 15:32:13:980
-3.361,-10.439,1.225,406,0,53.08,,,,NaN,,,,0 / 0,108905,2018-11-20 15:32:14:080
-1.829,-10.333,-0.354,385,0,58.84,,,,NaN,,,,0 / 0,109005,2018-11-20 15:32:14:180
-2.145,-9.759,0.105,405,0,58.84,,,,NaN,,,,0 / 0,109105,2018-11-20 15:32:14:280
-1.714,-9.787,0.651,425,0,58.84,,,,NaN,,,,0 / 0,109206,2018-11-20 15:32:14:381
-2.585,-9.433,1.216,422,0,51.8,,,,NaN,,,,0 / 0,109306,2018-11-20 15:32:14:481
-3.112,-9.481,1.139,456,0,51.8,,,,NaN,,,,0 / 0,109406,2018-11-20 15:32:14:581
-6.138,-8.025,-0.478,489,0,51.8,,,,NaN,,,,0 / 0,109505,2018-11-20 15:32:14:680
-2.269,-8.772,1.656,489,1,46.61,,,,NaN,,,,0 / 0,109605,2018-11-20 15:32:14:780
-4.099,-8.332,2.672,514,1,46.61,,,,NaN,,,,0 / 0,109705,2018-11-20 15:32:14:880
-3.208,-6.014,6.138,485,1,46.61,,,,NaN,,,,0 / 0,109806,2018-11-20 15:32:14:981
-2.796,-5.42,7.192,454,1,46.61,,,,NaN,,,,0 / 0,109906,2018-11-20 15:32:15:081
-2.604,-4.003,7.518,390,1,46.42,,,,NaN,,,,0 / 0,110006,2018-11-20 15:32:15:181
-2.336,-3.782,8.523,304,1,46.42,,,,NaN,,,,0 / 0,110105,2018-11-20 15:32:15:280
-2.308,-2.719,9.241,207,1,46.42,,,,NaN,,,,0 / 0,110205,2018-11-20 15:32:15:380
-2.154,-2.49,9.998,186,1,52.47,,,,NaN,,,,0 / 0,110305,2018-11-20 15:32:15:480
-2.786,-2.739,11.166,183,1,52.47,,,,NaN,,,,0 / 0,110406,2018-11-20 15:32:15:581
-3.093,-3.447,10.448,195,1,52.47,,,,NaN,,,,0 / 0,110506,2018-11-20 15:32:15:681
-2.49,-3.658,9.481,179,1,60.98,,,,NaN,,,,0 / 0,110606,2018-11-20 15:32:15:781
-2.26,-4.261,8.265,207,1,60.98,,,,NaN,,,,0 / 0,110706,2018-11-20 15:32:15:881
-2.604,-4.941,7.144,407,1,60.98,,,,NaN,,,,0 / 0,110805,2018-11-20 15:32:15:980
-3.083,-7.02,5.353,459,1,51.22,,,,NaN,,,,0 / 0,110905,2018-11-20 15:32:16:080
-2.901,-8.466,3.773,468,1,51.22,,,,NaN,,,,0 / 0,111005,2018-11-20 15:32:16:180
-3.361,-8.006,1.905,455,0,51.22,,,,NaN,,,,0 / 0,111105,2018-11-20 15:32:16:280
-2.767,-8.629,1.407,443,0,53.28,,,,NaN,,,,0 / 0,111206,2018-11-20 15:32:16:381
-2.461,-9.443,0.861,406,0,53.28,,,,NaN,,,,0 / 0,111306,2018-11-20 15:32:16:481
-1.245,-10.056,1.541,383,0,53.28,,,,NaN,,,,0 / 0,111406,2018-11-20 15:32:16:581
-2.604,-9.49,-0.842,412,0,56.71,,,,NaN,,,,0 / 0,111505,2018-11-20 15:32:16:680
-2.174,-10.084,-0.028,395,0,56.71,,,,NaN,,,,0 / 0,111605,2018-11-20 15:32:16:780
-2.423,-9.672,0.632,441,0,56.71,,,,NaN,,,,0 / 0,111705,2018-11-20 15:32:16:880
-2.461,-9.577,1.905,466,0,50.74,,,,NaN,,,,0 / 0,111806,2018-11-20 15:32:16:981
-3.179,-7.383,3.371,474,0,50.74,,,,NaN,,,,0 / 0,111906,2018-11-20 15:32:17:081
-0.708,-8.054,3.61,509,1,50.74,,,,NaN,,,,0 / 0,112006,2018-11-20 15:32:17:181
-3.696,-8.494,6.014,517,1,47.32,,,,NaN,,,,0 / 0,112105,2018-11-20 15:32:17:280
-2.375,-5.602,7.336,506,1,47.32,,,,NaN,,,,0 / 0,112206,2018-11-20 15:32:17:381
-2.547,-5.497,7.757,396,1,47.32,,,,NaN,,,,0 / 0,112306,2018-11-20 15:32:17:481
-1.829,-4.424,7.69,310,1,46.07,,,,NaN,,,,0 / 0,112406,2018-11-20 15:32:17:581
-2.145,-3.428,8.552,284,1,46.07,,,,NaN,,,,0 / 0,112505,2018-11-20 15:32:17:680
-2.202,-2.844,9.739,246,1,46.07,,,,NaN,,,,0 / 0,112605,2018-11-20 15:32:17:780
-2.442,-2.375,11.042,219,1,54.63,,,,NaN,,,,0 / 0,112705,2018-11-20 15:32:17:880
-2.537,-2.384,11.923,216,1,54.63,,,,NaN,,,,0 / 0,112805,2018-11-20 15:32:17:980
-2.317,-2.604,10.87,210,1,54.63,,,,NaN,,,,0 / 0,112905,2018-11-20 15:32:18:080
-2.49,-4.031,8.351,218,1,57.68,,,,NaN,,,,0 / 0,113005,2018-11-20 15:32:18:180
-2.825,-4.597,7.403,256,1,57.68,,,,NaN,,,,0 / 0,113105,2018-11-20 15:32:18:280
-2.432,-6.071,6.723,346,1,57.68,,,,NaN,,,,0 / 0,113206,2018-11-20 15:32:18:381
-2.432,-6.617,5.209,383,0,58.52,,,,NaN,,,,0 / 0,113306,2018-11-20 15:32:18:481
-2.739,-8.38,3.237,413,0,58.52,,,,NaN,,,,0 / 0,113406,2018-11-20 15:32:18:581
-2.02,-8.073,1.743,424,0,58.52,,,,NaN,,,,0 / 0,113506,2018-11-20 15:32:18:681
-3.792,-9.337,1.455,386,0,52.2,,,,NaN,,,,0 / 0,113606,2018-11-20 15:32:18:781
-1.982,-9.471,0.612,418,0,52.2,,,,NaN,,,,0 / 0,113705,2018-11-20 15:32:18:880
-2.154,-9.27,0.344,442,1,52.2,,,,NaN,,,,0 / 0,113805,2018-11-20 15:32:18:980
-1.944,-9.261,-0.727,439,1,56.46,,,,NaN,,,,0 / 0,113905,2018-11-20 15:32:19:080
-2.336,-9.998,0.086,433,1,56.46,,,,NaN,,,,0 / 0,114005,2018-11-20 15:32:19:180
-1.771,-9.778,-0.928,423,1,56.46,,,,NaN,,,,0 / 0,114105,2018-11-20 15:32:19:280
-2.001,-9.797,-0.344,432,1,43.24,,,,NaN,,,,0 / 0,114206,2018-11-20 15:32:19:381
-2.039,-9.443,-0.545,438,1,43.24,,,,NaN,,,,0 / 0,114306,2018-11-20 15:32:19:481
-2.078,-9.328,-0.287,433,1,43.24,,,,NaN,,,,0 / 0,114406,2018-11-20 15:32:19:581
-2.193,-9.557,-0.057,437,1,40,,,,NaN,,,,0 / 0,114505,2018-11-20 15:32:19:680
-2.193,-9.28,-0.66,449,1,40,,,,NaN,,,,0 / 0,114605,2018-11-20 15:32:19:780
-1.81,-9.615,-0.038,433,1,40,,,,NaN,,,,0 / 0,114705,2018-11-20 15:32:19:880
-2.231,-9.557,-0.718,425,1,35.21,,,,NaN,,,,0 / 0,114805,2018-11-20 15:32:19:980
-2.394,-9.797,-0.057,418,1,35.21,,,,NaN,,,,0 / 0,114906,2018-11-20 15:32:20:081
-1.522,-9.395,-0.172,440,1,35.21,,,,NaN,,,,0 / 0,115006,2018-11-20 15:32:20:181
-1.944,-9.395,-0.086,444,1,32.09,,,,NaN,,,,0 / 0,115106,2018-11-20 15:32:20:281
-2.212,-9.538,-0.363,437,1,32.09,,,,NaN,,,,0 / 0,115205,2018-11-20 15:32:20:380
-1.857,-9.653,-0.019,433,1,32.09,,,,NaN,,,,0 / 0,115305,2018-11-20 15:32:20:480
-1.714,-9.471,-0.296,444,1,29.42,,,,NaN,,,,0 / 0,115405,2018-11-20 15:32:20:580
-2.202,-9.605,-0.229,452,1,29.42,,,,NaN,,,,0 / 0,115506,2018-11-20 15:32:20:681
-2.03,-9.605,-0.354,431,1,29.42,,,,NaN,,,,0 / 0,115606,2018-11-20 15:32:20:781
-2.193,-9.557,-0.402,441,1,27.21,,,,NaN,,,,0 / 0,115705,2018-11-20 15:32:20:880
-2.087,-9.567,-0.517,425,1,27.21,,,,NaN,,,,0 / 0,115806,2018-11-20 15:32:20:981
-1.992,-9.663,-0.316,432,1,27.21,,,,NaN,,,,0 / 0,115906,2018-11-20 15:32:21:081
-2.039,-9.615,-0.268,443,1,28.74,,,,NaN,,,,0 / 0,116006,2018-11-20 15:32:21:181
-2.078,-9.72,-0.268,433,1,28.74,,,,NaN,,,,0 / 0,116105,2018-11-20 15:32:21:280
-2.078,-9.653,-0.162,433,1,28.74,,,,NaN,,,,0 / 0,116205,2018-11-20 15:32:21:380
-2.126,-9.663,-0.22,436,1,26.45,,,,NaN,,,,0 / 0,116305,2018-11-20 15:32:21:480
-2.078,-9.682,-0.162,443,1,26.45,,,,NaN,,,,0 / 0,116405,2018-11-20 15:32:21:580
-2.068,-9.644,-0.124,448,1,26.45,,,,NaN,,,,0 / 0,116505,2018-11-20 15:32:21:680
-2.068,-9.615,-0.181,442,1,26.76,,,,NaN,,,,0 / 0,116606,2018-11-20 15:32:21:781
-2.02,-9.682,-0.009,439,1,26.76,,,,NaN,,,,0 / 0,116706,2018-11-20 15:32:21:881
-2.059,-9.663,0,442,1,26.76,,,,NaN,,,,0 / 0,116806,2018-11-20 15:32:21:981
-1.79,-9.557,-0.134,436,1,26.21,,,,NaN,,,,0 / 0,116906,2018-11-20 15:32:22:081
-1.963,-9.5,-0.239,415,1,26.21,,,,NaN,,,,0 / 0,117005,2018-11-20 15:32:22:180
-2.116,-9.596,-0.287,424,1,26.21,,,,NaN,,,,0 / 0,117105,2018-11-20 15:32:22:280
-2.011,-9.577,-0.402,428,1,27.55,,,,NaN,,,,0 / 0,117205,2018-11-20 15:32:22:380
-2.011,-9.605,-0.526,420,1,27.55,,,,NaN,,,,0 / 0,117306,2018-11-20 15:32:22:481
-2.193,-9.692,-0.507,426,1,27.55,,,,NaN,,,,0 / 0,117406,2018-11-20 15:32:22:581
-2.154,-9.538,-0.785,410,1,33.88,,,,NaN,,,,0 / 0,117506,2018-11-20 15:32:22:681
-2.221,-9.835,-0.095,425,1,33.88,,,,NaN,,,,0 / 0,117606,2018-11-20 15:32:22:781
-1.589,-9.356,-0.517,432,1,33.88,,,,NaN,,,,0 / 0,117705,2018-11-20 15:32:22:880
-2.212,-9.787,0.249,439,1,27.42,,,,NaN,,,,0 / 0,117805,2018-11-20 15:32:22:980
-1.8,-9.605,0.086,434,1,27.42,,,,NaN,,,,0 / 0,117905,2018-11-20 15:32:23:080
-2.049,-9.395,-0.526,440,1,27.42,,,,NaN,,,,0 / 0,118006,2018-11-20 15:32:23:181
-2.212,-9.644,0.047,451,1,29.68,,,,NaN,,,,0 / 0,118106,2018-11-20 15:32:23:281
-1.896,-9.634,-0.344,426,1,29.68,,,,NaN,,,,0 / 0,118206,2018-11-20 15:32:23:381
-2.068,-9.596,-0.536,424,1,29.68,,,,NaN,,,,0 / 0,118306,2018-11-20 15:32:23:481
-1.963,-9.634,-0.679,426,1,27.04,,,,NaN,,,,0 / 0,118405,2018-11-20 15:32:23:580
-1.934,-9.73,-0.67,430,1,27.04,,,,NaN,,,,0 / 0,118505,2018-11-20 15:32:23:680
-1.752,-9.653,-0.498,436,1,27.04,,,,NaN,,,,0 / 0,118605,2018-11-20 15:32:23:780
-1.733,-9.605,-0.593,434,1,49.84,,,,NaN,,,,0 / 0,118705,2018-11-20 15:32:23:880
-1.925,-9.672,-0.612,430,1,49.84,,,,NaN,,,,0 / 0,118806,2018-11-20 15:32:23:981
-1.896,-9.567,-0.689,456,1,49.84,,,,NaN,,,,0 / 0,118906,2018-11-20 15:32:24:081
-1.963,-9.51,-0.756,427,1,49.84,,,,NaN,,,,0 / 0,119006,2018-11-20 15:32:24:181
-1.867,-9.625,-0.699,436,1,30.03,,,,NaN,,,,0 / 0,119106,2018-11-20 15:32:24:281
-2.059,-9.701,-0.574,423,1,30.03,,,,NaN,,,,0 / 0,119205,2018-11-20 15:32:24:380
-2.011,-9.577,-0.737,418,1,30.03,,,,NaN,,,,0 / 0,119305,2018-11-20 15:32:24:480
-1.915,-9.586,-0.565,442,1,31.89,,,,NaN,,,,0 / 0,119405,2018-11-20 15:32:24:580
-1.992,-9.586,-0.526,431,1,31.89,,,,NaN,,,,0 / 0,119505,2018-11-20 15:32:24:680
-1.915,-9.615,-0.45,433,1,31.89,,,,NaN,,,,0 / 0,119606,2018-11-20 15:32:24:781
-2.039,-9.73,-0.325,436,1,28.97,,,,NaN,,,,0 / 0,119706,2018-11-20 15:32:24:881
-2.039,-9.625,-0.363,435,1,28.97,,,,NaN,,,,0 / 0,119806,2018-11-20 15:32:24:981
-2.02,-9.701,-0.258,435,1,28.97,,,,NaN,,,,0 / 0,119905,2018-11-20 15:32:25:080
-1.848,-9.634,-0.469,426,1,28.39,,,,NaN,,,,0 / 0,120005,2018-11-20 15:32:25:180
-1.944,-9.538,-0.651,429,1,28.39,,,,NaN,,,,0 / 0,120105,2018-11-20 15:32:25:280
-2.001,-9.682,-0.45,427,1,28.39,,,,NaN,,,,0 / 0,120205,2018-11-20 15:32:25:380
-2.001,-9.557,-0.584,438,1,27.14,,,,NaN,,,,0 / 0,120305,2018-11-20 15:32:25:480
-2.106,-9.567,-0.651,423,1,27.14,,,,NaN,,,,0 / 0,120405,2018-11-20 15:32:25:580
-1.982,-9.615,-0.651,434,1,27.14,,,,NaN,,,,0 / 0,120506,2018-11-20 15:32:25:681
-1.867,-9.596,-0.459,434,1,26.21,,,,NaN,,,,0 / 0,120606,2018-11-20 15:32:25:781
-1.972,-9.711,-0.44,418,1,26.21,,,,NaN,,,,0 / 0,120706,2018-11-20 15:32:25:881
-1.867,-9.663,-0.43,420,1,26.21,,,,NaN,,,,0 / 0,120806,2018-11-20 15:32:25:981
-2.011,-9.787,-0.114,426,1,25.93,,,,NaN,,,,0 / 0,120906,2018-11-20 15:32:26:081
-1.829,-9.548,-0.545,436,1,25.93,,,,NaN,,,,0 / 0,121006,2018-11-20 15:32:26:181
-1.963,-9.577,-0.459,424,1,25.93,,,,NaN,,,,0 / 0,121106,2018-11-20 15:32:26:281
-1.905,-9.625,-0.478,435,1,26.38,,,,NaN,,,,0 / 0,121205,2018-11-20 15:32:26:380
-1.915,-9.471,-0.545,443,1,26.38,,,,NaN,,,,0 / 0,121305,2018-11-20 15:32:26:480
-1.972,-9.615,-0.421,451,1,26.38,,,,NaN,,,,0 / 0,121405,2018-11-20 15:32:26:580
-1.848,-9.682,-0.229,441,1,27.02,,,,NaN,,,,0 / 0,121506,2018-11-20 15:32:26:681
-1.934,-9.644,-0.488,435,1,27.02,,,,NaN,,,,0 / 0,121606,2018-11-20 15:32:26:781
-1.953,-9.596,-0.612,435,1,27.02,,,,NaN,,,,0 / 0,121706,2018-11-20 15:32:26:881
-1.972,-9.644,-0.498,435,1,26.81,,,,NaN,,,,0 / 0,121806,2018-11-20 15:32:26:981
-1.982,-9.634,-0.555,436,1,26.81,,,,NaN,,,,0 / 0,121905,2018-11-20 15:32:27:080
-1.992,-9.692,-0.517,440,1,26.81,,,,NaN,,,,0 / 0,122005,2018-11-20 15:32:27:180
-1.886,-9.557,-0.517,443,1,26.81,,,,NaN,,,,0 / 0,122105,2018-11-20 15:32:27:280
-2.011,-9.586,-0.392,447,1,26.81,,,,NaN,,,,0 / 0,122205,2018-11-20 15:32:27:380
-1.877,-9.615,-0.325,444,1,26.81,,,,NaN,,,,0 / 0,122305,2018-11-20 15:32:27:480
-1.915,-9.615,-0.517,428,1,26.22,,,,NaN,,,,0 / 0,122406,2018-11-20 15:32:27:581
-1.857,-9.634,-0.354,448,1,26.22,,,,NaN,,,,0 / 0,122506,2018-11-20 15:32:27:681
-1.848,-9.672,-0.181,447,1,26.22,,,,NaN,,,,0 / 0,122606,2018-11-20 15:32:27:781
-2.001,-9.701,-0.354,447,1,26.73,,,,NaN,,,,0 / 0,122705,2018-11-20 15:32:27:880
-1.886,-9.615,-0.469,427,1,26.73,,,,NaN,,,,0 / 0,122805,2018-11-20 15:32:27:980
-1.915,-9.711,-0.239,437,1,26.73,,,,NaN,,,,0 / 0,122905,2018-11-20 15:32:28:080
-1.972,-9.577,-0.392,427,1,25.85,,,,NaN,,,,0 / 0,123005,2018-11-20 15:32:28:180
-1.934,-9.519,-0.565,430,1,25.85,,,,NaN,,,,0 / 0,123106,2018-11-20 15:32:28:281
-2.116,-9.644,-0.325,454,1,25.85,,,,NaN,,,,0 / 0,123206,2018-11-20 15:32:28:381
-2.078,-9.605,-0.383,443,1,27.33,,,,NaN,,,,0 / 0,123306,2018-11-20 15:32:28:481
-2.279,-9.826,-0.45,439,1,27.33,,,,NaN,,,,0 / 0,123405,2018-11-20 15:32:28:580
-1.915,-9.625,-0.21,450,1,27.33,,,,NaN,,,,0 / 0,123505,2018-11-20 15:32:28:680
-1.704,-9.653,-0.201,444,1,36.08,,,,NaN,,,,0 / 0,123605,2018-11-20 15:32:28:780
-1.647,-9.692,-0.076,436,1,36.08,,,,NaN,,,,0 / 0,123705,2018-11-20 15:32:28:880
-1.695,-9.739,-0.22,451,1,36.08,,,,NaN,,,,0 / 0,123805,2018-11-20 15:32:28:980
-1.35,-9.49,-0.335,434,1,56.28,,,,NaN,,,,0 / 0,123906,2018-11-20 15:32:29:081
-0.938,-9.51,-0.689,446,1,56.28,,,,NaN,,,,0 / 0,124006,2018-11-20 15:32:29:181
-1.216,-9.452,-0.239,436,1,56.28,,,,NaN,,,,0 / 0,124106,2018-11-20 15:32:29:281
-1.398,-9.672,-0.498,453,1,56.28,,,,NaN,,,,0 / 0,124206,2018-11-20 15:32:29:381
-1.197,-9.605,-0.229,443,1,51.19,,,,NaN,,,,0 / 0,124305,2018-11-20 15:32:29:480
-1.197,-9.567,-0.268,440,1,51.19,,,,NaN,,,,0 / 0,124405,2018-11-20 15:32:29:580
-1.35,-9.663,-0.124,465,1,51.19,,,,NaN,,,,0 / 0,124505,2018-11-20 15:32:29:680
-1.292,-9.548,-0.191,446,1,48.68,,,,NaN,,,,0 / 0,124605,2018-11-20 15:32:29:780
-1.398,-9.672,-0.047,452,1,48.68,,,,NaN,,,,0 / 0,124705,2018-11-20 15:32:29:880
-1.877,-9.548,0.057,451,1,48.68,,,,NaN,,,,0 / 0,124805,2018-11-20 15:32:29:980
-1.312,-9.644,-0.172,448,1,31.19,,,,NaN,,,,0 / 0,124906,2018-11-20 15:32:30:081
-1.436,-9.529,0,454,1,31.19,,,,NaN,,,,0 / 0,125006,2018-11-20 15:32:30:181
-1.503,-9.596,-0.162,450,1,31.19,,,,NaN,,,,0 / 0,125106,2018-11-20 15:32:30:281
-1.963,-9.538,-0.22,457,1,38.99,,,,NaN,,,,0 / 0,125205,2018-11-20 15:32:30:380
-2.001,-9.557,-0.229,453,1,38.99,,,,NaN,,,,0 / 0,125305,2018-11-20 15:32:30:480
-1.58,-9.663,-0.038,454,1,38.99,,,,NaN,,,,0 / 0,125406,2018-11-20 15:32:30:581
-1.608,-9.586,-0.306,457,1,38.59,,,,NaN,,,,0 / 0,125505,2018-11-20 15:32:30:680
-1.656,-9.672,-0.143,453,1,38.59,,,,NaN,,,,0 / 0,125605,2018-11-20 15:32:30:780
-1.455,-9.567,-0.258,456,1,38.59,,,,NaN,,,,0 / 0,125705,2018-11-20 15:32:30:880
-1.637,-9.682,-0.095,457,1,39.86,,,,NaN,,,,0 / 0,125806,2018-11-20 15:32:30:981
-1.676,-9.692,-0.067,446,1,39.86,,,,NaN,,,,0 / 0,125906,2018-11-20 15:32:31:081
-1.637,-9.692,0.019,442,1,39.86,,,,NaN,,,,0 / 0,126006,2018-11-20 15:32:31:181
-1.656,-9.625,-0.038,458,1,28.47,,,,NaN,,,,0 / 0,126106,2018-11-20 15:32:31:281
-1.819,-9.739,0.134,454,1,28.47,,,,NaN,,,,0 / 0,126206,2018-11-20 15:32:31:381
-1.637,-9.625,0,445,1,28.47,,,,NaN,,,,0 / 0,126306,2018-11-20 15:32:31:481
-1.829,-9.586,-0.124,452,1,33.3,,,,NaN,,,,0 / 0,126405,2018-11-20 15:32:31:580
-1.695,-9.692,0.134,455,1,33.3,,,,NaN,,,,0 / 0,126505,2018-11-20 15:32:31:680
-1.57,-9.672,0.105,454,1,33.3,,,,NaN,,,,0 / 0,126605,2018-11-20 15:32:31:780
-1.647,-9.625,-0.009,455,1,27.83,,,,NaN,,,,0 / 0,126705,2018-11-20 15:32:31:880
-1.723,-9.634,-0.095,454,1,27.83,,,,NaN,,,,0 / 0,126806,2018-11-20 15:32:31:981
-1.733,-9.644,-0.239,466,1,27.83,,,,NaN,,,,0 / 0,126906,2018-11-20 15:32:32:081
-1.57,-9.644,-0.019,453,1,27.25,,,,NaN,,,,0 / 0,127006,2018-11-20 15:32:32:181
-1.752,-9.672,-0.009,447,1,27.25,,,,NaN,,,,0 / 0,127106,2018-11-20 15:32:32:281
-1.8,-9.701,-0.114,456,1,27.25,,,,NaN,,,,0 / 0,127205,2018-11-20 15:32:32:380
-1.752,-9.615,-0.038,438,1,28.6,,,,NaN,,,,0 / 0,127305,2018-11-20 15:32:32:480
-1.379,-9.605,-0.162,464,1,28.6,,,,NaN,,,,0 / 0,127405,2018-11-20 15:32:32:580
-1.79,-9.596,-0.239,464,1,28.6,,,,NaN,,,,0 / 0,127505,2018-11-20 15:32:32:680
-1.608,-9.634,-0.162,462,1,27.67,,,,NaN,,,,0 / 0,127606,2018-11-20 15:32:32:781
-1.628,-9.634,-0.325,452,1,27.67,,,,NaN,,,,0 / 0,127706,2018-11-20 15:32:32:881
-1.771,-9.711,-0.143,458,1,27.67,,,,NaN,,,,0 / 0,127806,2018-11-20 15:32:32:981
-1.637,-9.586,-0.249,460,1,27.15,,,,NaN,,,,0 / 0,127906,2018-11-20 15:32:33:081
-1.81,-9.605,-0.162,466,1,27.15,,,,NaN,,,,0 / 0,128005,2018-11-20 15:32:33:180
-1.8,-9.625,-0.114,460,1,27.15,,,,NaN,,,,0 / 0,128105,2018-11-20 15:32:33:280
-1.704,-9.653,-0.057,454,1,27.7,,,,NaN,,,,0 / 0,128205,2018-11-20 15:32:33:380
-1.647,-9.644,-0.019,462,1,27.7,,,,NaN,,,,0 / 0,128305,2018-11-20 15:32:33:480
-1.685,-9.672,-0.047,445,1,27.7,,,,NaN,,,,0 / 0,128405,2018-11-20 15:32:33:580
-1.714,-9.663,-0.124,458,1,26.99,,,,NaN,,,,0 / 0,128505,2018-11-20 15:32:33:680
-1.637,-9.577,-0.249,449,1,26.99,,,,NaN,,,,0 / 0,128606,2018-11-20 15:32:33:781
-1.733,-9.615,-0.153,446,1,26.99,,,,NaN,,,,0 / 0,128706,2018-11-20 15:32:33:881
-1.656,-9.615,-0.172,458,1,27.76,,,,NaN,,,,0 / 0,128806,2018-11-20 15:32:33:981
-1.733,-9.73,-0.086,445,1,27.76,,,,NaN,,,,0 / 0,128906,2018-11-20 15:32:34:081
-1.762,-9.672,-0.21,447,1,27.76,,,,NaN,,,,0 / 0,129005,2018-11-20 15:32:34:180
-1.685,-9.625,-0.162,458,1,27.27,,,,NaN,,,,0 / 0,129105,2018-11-20 15:32:34:280
-1.704,-9.577,-0.172,462,1,27.27,,,,NaN,,,,0 / 0,129205,2018-11-20 15:32:34:380
-1.723,-9.596,-0.162,460,1,27.27,,,,NaN,,,,0 / 0,129305,2018-11-20 15:32:34:480
-1.743,-9.644,-0.105,458,1,27.48,,,,NaN,,,,0 / 0,129406,2018-11-20 15:32:34:581
-1.733,-9.672,-0.076,446,1,27.48,,,,NaN,,,,0 / 0,129506,2018-11-20 15:32:34:681
-1.618,-9.615,-0.124,456,1,27.48,,,,NaN,,,,0 / 0,129606,2018-11-20 15:32:34:781
-1.714,-9.739,-0.019,457,1,27.48,,,,NaN,,,,0 / 0,129705,2018-11-20 15:32:34:880
-1.599,-9.577,-0.114,461,1,27.22,,,,NaN,,,,0 / 0,129805,2018-11-20 15:32:34:980
-1.704,-9.596,-0.114,473,1,27.22,,,,NaN,,,,0 / 0,129905,2018-11-20 15:32:35:080
-1.656,-9.625,-0.181,436,1,27.22,,,,NaN,,,,0 / 0,130005,2018-11-20 15:32:35:180
-1.695,-9.634,-0.191,454,1,27.26,,,,NaN,,,,0 / 0,130106,2018-11-20 15:32:35:281
-1.647,-9.682,-0.191,452,1,27.26,,,,NaN,,,,0 / 0,130206,2018-11-20 15:32:35:381
-1.599,-9.567,-0.201,463,1,27.26,,,,NaN,,,,0 / 0,130306,2018-11-20 15:32:35:481
-1.608,-9.663,-0.21,448,1,27.57,,,,NaN,,,,0 / 0,130406,2018-11-20 15:32:35:581
-1.656,-9.586,-0.335,460,1,27.57,,,,NaN,,,,0 / 0,130505,2018-11-20 15:32:35:680
-1.714,-9.605,-0.306,469,1,27.57,,,,NaN,,,,0 / 0,130605,2018-11-20 15:32:35:780
-1.781,-9.605,-0.287,463,1,27.2,,,,NaN,,,,0 / 0,130705,2018-11-20 15:32:35:880
-1.685,-9.692,0.019,462,1,27.2,,,,NaN,,,,0 / 0,130805,2018-11-20 15:32:35:980
-1.8,-9.586,-0.086,459,1,27.2,,,,NaN,,,,0 / 0,130906,2018-11-20 15:32:36:081
-1.695,-9.625,-0.095,463,1,28.58,,,,NaN,,,,0 / 0,131006,2018-11-20 15:32:36:181
-1.57,-9.567,-0.201,453,1,28.58,,,,NaN,,,,0 / 0,131106,2018-11-20 15:32:36:281
-1.666,-9.692,0.038,457,1,28.58,,,,NaN,,,,0 / 0,131206,2018-11-20 15:32:36:381
-1.561,-9.625,-0.277,453,1,27.92,,,,NaN,,,,0 / 0,131305,2018-11-20 15:32:36:480
-1.666,-9.682,-0.114,467,1,27.92,,,,NaN,,,,0 / 0,131405,2018-11-20 15:32:36:580
-1.762,-9.692,-0.047,474,1,27.92,,,,NaN,,,,0 / 0,131505,2018-11-20 15:32:36:680
-1.771,-9.644,-0.162,451,1,27.49,,,,NaN,,,,0 / 0,131606,2018-11-20 15:32:36:781
-1.743,-9.596,-0.134,444,1,27.49,,,,NaN,,,,0 / 0,131706,2018-11-20 15:32:36:881
-1.714,-9.625,-0.028,471,1,27.49,,,,NaN,,,,0 / 0,131806,2018-11-20 15:32:36:981
-1.656,-9.625,-0.114,448,1,28.4,,,,NaN,,,,0 / 0,131906,2018-11-20 15:32:37:081
-1.685,-9.634,-0.181,462,1,28.4,,,,NaN,,,,0 / 0,132005,2018-11-20 15:32:37:180
-1.771,-9.644,-0.162,458,1,28.4,,,,NaN,,,,0 / 0,132105,2018-11-20 15:32:37:280
-1.762,-9.653,-0.086,463,1,28.07,,,,NaN,,,,0 / 0,132205,2018-11-20 15:32:37:380
-1.743,-9.682,-0.114,462,1,28.07,,,,NaN,,,,0 / 0,132305,2018-11-20 15:32:37:480
-1.723,-9.653,-0.162,459,1,28.07,,,,NaN,,,,0 / 0,132405,2018-11-20 15:32:37:580
-1.685,-9.625,-0.019,461,1,29.22,,,,NaN,,,,0 / 0,132505,2018-11-20 15:32:37:680
-1.608,-9.644,-0.067,447,1,29.22,,,,NaN,,,,0 / 0,132605,2018-11-20 15:32:37:780
-1.781,-9.605,-0.105,442,1,29.22,,,,NaN,,,,0 / 0,132706,2018-11-20 15:32:37:881
-1.676,-9.625,-0.143,438,1,27.99,,,,NaN,,,,0 / 0,132806,2018-11-20 15:32:37:981
-1.743,-9.625,-0.22,434,1,27.99,,,,NaN,,,,0 / 0,132906,2018-11-20 15:32:38:081
-1.676,-9.663,-0.143,433,1,27.99,,,,NaN,,,,0 / 0,133006,2018-11-20 15:32:38:181
-1.647,-9.72,-0.296,426,1,28.57,,,,NaN,,,,0 / 0,133106,2018-11-20 15:32:38:281
-1.723,-9.625,-0.421,442,1,28.57,,,,NaN,,,,0 / 0,133206,2018-11-20 15:32:38:381
-1.608,-9.653,-0.287,441,1,28.57,,,,NaN,,,,0 / 0,133305,2018-11-20 15:32:38:480
-1.656,-9.692,-0.22,419,1,28.54,,,,NaN,,,,0 / 0,133405,2018-11-20 15:32:38:580
-1.656,-9.663,-0.201,438,1,28.54,,,,NaN,,,,0 / 0,133505,2018-11-20 15:32:38:680
-1.752,-9.682,-0.086,434,1,28.54,,,,NaN,,,,0 / 0,133605,2018-11-20 15:32:38:780
-1.695,-9.615,-0.143,425,1,28.19,,,,NaN,,,,0 / 0,133705,2018-11-20 15:32:38:880
-1.79,-9.711,-0.153,449,1,28.19,,,,NaN,,,,0 / 0,133806,2018-11-20 15:32:38:981
-2.03,-9.586,-0.105,436,1,28.19,,,,NaN,,,,0 / 0,133906,2018-11-20 15:32:39:081
-1.503,-9.567,-0.143,451,1,28.23,,,,NaN,,,,0 / 0,134006,2018-11-20 15:32:39:181
-1.762,-9.605,-0.191,446,1,28.23,,,,NaN,,,,0 / 0,134105,2018-11-20 15:32:39:280
-1.637,-9.692,-0.143,445,1,28.23,,,,NaN,,,,0 / 0,134205,2018-11-20 15:32:39:380
-1.618,-9.653,-0.038,470,1,30.64,,,,NaN,,,,0 / 0,134305,2018-11-20 15:32:39:480
-1.733,-9.653,-0.067,464,1,30.64,,,,NaN,,,,0 / 0,134405,2018-11-20 15:32:39:580
-1.58,-9.653,0.009,463,1,30.64,,,,NaN,,,,0 / 0,134505,2018-11-20 15:32:39:680
-1.608,-9.615,-0.095,473,1,27.07,,,,NaN,,,,0 / 0,134606,2018-11-20 15:32:39:781
-1.666,-9.634,0.028,457,1,27.07,,,,NaN,,,,0 / 0,134706,2018-11-20 15:32:39:881
-1.618,-9.663,-0.105,469,1,27.07,,,,NaN,,,,0 / 0,134806,2018-11-20 15:32:39:981
-1.628,-9.653,-0.143,457,1,27.04,,,,NaN,,,,0 / 0,134906,2018-11-20 15:32:40:081
-1.58,-9.692,-0.172,466,1,27.04,,,,NaN,,,,0 / 0,135006,2018-11-20 15:32:40:181
-1.695,-9.692,-0.181,461,1,27.04,,,,NaN,,,,0 / 0,135106,2018-11-20 15:32:40:281
-1.752,-9.644,-0.105,458,1,27.3,,,,NaN,,,,0 / 0,135205,2018-11-20 15:32:40:380
-1.656,-9.692,-0.009,474,1,27.3,,,,NaN,,,,0 / 0,135305,2018-11-20 15:32:40:480
-1.733,-9.701,-0.009,473,1,27.3,,,,NaN,,,,0 / 0,135405,2018-11-20 15:32:40:580
-1.743,-9.663,-0.114,467,1,27.56,,,,NaN,,,,0 / 0,135505,2018-11-20 15:32:40:680
-1.666,-9.644,-0.019,447,1,27.56,,,,NaN,,,,0 / 0,135606,2018-11-20 15:32:40:781
-1.58,-9.605,-0.191,458,1,27.56,,,,NaN,,,,0 / 0,135705,2018-11-20 15:32:40:880
-1.676,-9.634,-0.201,460,1,27.19,,,,NaN,,,,0 / 0,135805,2018-11-20 15:32:40:980
-1.58,-9.625,-0.296,453,1,27.19,,,,NaN,,,,0 / 0,135905,2018-11-20 15:32:41:080
-1.771,-9.711,-0.21,463,1,27.19,,,,NaN,,,,0 / 0,136006,2018-11-20 15:32:41:181
-1.704,-9.625,-0.134,459,1,27.96,,,,NaN,,,,0 / 0,136106,2018-11-20 15:32:41:281
-1.647,-9.73,-0.019,461,1,27.96,,,,NaN,,,,0 / 0,136206,2018-11-20 15:32:41:381
-1.714,-9.663,0,465,1,27.96,,,,NaN,,,,0 / 0,136305,2018-11-20 15:32:41:480
-1.704,-9.692,-0.019,461,1,28.15,,,,NaN,,,,0 / 0,136406,2018-11-20 15:32:41:581
-1.714,-9.682,0.038,461,1,28.15,,,,NaN,,,,0 / 0,136506,2018-11-20 15:32:41:681
-1.628,-9.634,-0.124,459,1,28.15,,,,NaN,,,,0 / 0,136606,2018-11-20 15:32:41:781
-1.714,-9.615,-0.335,451,1,27.76,,,,NaN,,,,0 / 0,136706,2018-11-20 15:32:41:881
-1.695,-9.672,-0.162,453,1,27.76,,,,NaN,,,,0 / 0,136805,2018-11-20 15:32:41:980
-1.618,-9.557,-0.095,444,1,27.76,,,,NaN,,,,0 / 0,136905,2018-11-20 15:32:42:080
-1.656,-9.605,-0.143,482,1,27.3,,,,NaN,,,,0 / 0,137005,2018-11-20 15:32:42:180
-1.628,-9.653,-0.239,451,1,27.3,,,,NaN,,,,0 / 0,137105,2018-11-20 15:32:42:280
-1.628,-9.682,-0.028,469,1,27.3,,,,NaN,,,,0 / 0,137206,2018-11-20 15:32:42:381
-1.656,-9.586,-0.21,455,1,27.29,,,,NaN,,,,0 / 0,137305,2018-11-20 15:32:42:480
-1.743,-9.692,0.124,464,1,27.29,,,,NaN,,,,0 / 0,137405,2018-11-20 15:32:42:580
-1.676,-9.682,0.038,460,1,27.29,,,,NaN,,,,0 / 0,137505,2018-11-20 15:32:42:680
-1.8,-9.596,-0.057,455,1,27.33,,,,NaN,,,,0 / 0,137606,2018-11-20 15:32:42:781
-1.723,-9.692,0.134,458,1,27.33,,,,NaN,,,,0 / 0,137706,2018-11-20 15:32:42:881
-1.733,-9.644,0.134,453,1,27.33,,,,NaN,,,,0 / 0,137806,2018-11-20 15:32:42:981
-1.762,-9.653,0,466,1,27.11,,,,NaN,,,,0 / 0,137905,2018-11-20 15:32:43:080
-1.781,-9.653,0.162,465,1,27.11,,,,NaN,,,,0 / 0,138005,2018-11-20 15:32:43:180
-1.656,-9.653,-0.028,469,1,27.11,,,,NaN,,,,0 / 0,138105,2018-11-20 15:32:43:280
-1.685,-9.644,0.047,456,1,26.79,,,,NaN,,,,0 / 0,138205,2018-11-20 15:32:43:380
-1.551,-9.625,-0.028,460,1,26.79,,,,NaN,,,,0 / 0,138306,2018-11-20 15:32:43:481
-1.781,-9.644,-0.067,457,1,26.79,,,,NaN,,,,0 / 0,138406,2018-11-20 15:32:43:581
-1.656,-9.625,0.028,453,1,26.58,,,,NaN,,,,0 / 0,138506,2018-11-20 15:32:43:681
-1.628,-9.625,-0.028,450,1,26.58,,,,NaN,,,,0 / 0,138606,2018-11-20 15:32:43:781
-1.676,-9.692,0.095,463,1,26.58,,,,NaN,,,,0 / 0,138705,2018-11-20 15:32:43:880
-1.685,-9.596,-0.009,462,1,26.58,,,,NaN,,,,0 / 0,138805,2018-11-20 15:32:43:980
-1.857,-9.557,-0.057,455,1,27.22,,,,NaN,,,,0 / 0,138905,2018-11-20 15:32:44:080
-1.743,-9.634,-0.076,462,1,27.22,,,,NaN,,,,0 / 0,139006,2018-11-20 15:32:44:181
-1.637,-9.663,-0.124,462,1,27.22,,,,NaN,,,,0 / 0,139106,2018-11-20 15:32:44:281
-1.656,-9.615,-0.134,463,1,29.27,,,,NaN,,,,0 / 0,139206,2018-11-20 15:32:44:381
-1.781,-9.634,0.038,459,1,29.27,,,,NaN,,,,0 / 0,139305,2018-11-20 15:32:44:480
-1.695,-9.586,0.019,468,1,29.27,,,,NaN,,,,0 / 0,139405,2018-11-20 15:32:44:580
-1.733,-9.711,0.038,465,1,27.24,,,,NaN,,,,0 / 0,139505,2018-11-20 15:32:44:680
-1.704,-9.653,0.057,461,1,27.24,,,,NaN,,,,0 / 0,139606,2018-11-20 15:32:44:781
-1.752,-9.644,-0.105,470,1,27.24,,,,NaN,,,,0 / 0,139706,2018-11-20 15:32:44:881
-1.676,-9.548,-0.067,456,1,26.42,,,,NaN,,,,0 / 0,139806,2018-11-20 15:32:44:981
-1.695,-9.596,-0.095,466,1,26.42,,,,NaN,,,,0 / 0,139906,2018-11-20 15:32:45:081
-1.723,-9.596,-0.143,466,1,26.42,,,,NaN,,,,0 / 0,140006,2018-11-20 15:32:45:181
-1.608,-9.615,-0.057,459,1,33.77,,,,NaN,,,,0 / 0,140106,2018-11-20 15:32:45:281
-1.781,-9.615,-0.201,465,1,33.77,,,,NaN,,,,0 / 0,140205,2018-11-20 15:32:45:380
-1.743,-9.644,-0.028,466,1,33.77,,,,NaN,,,,0 / 0,140305,2018-11-20 15:32:45:480
-1.628,-9.634,0,462,1,26.05,,,,NaN,,,,0 / 0,140405,2018-11-20 15:32:45:580
-1.819,-9.692,-0.009,464,1,26.05,,,,NaN,,,,0 / 0,140505,2018-11-20 15:32:45:680
-1.704,-9.625,-0.047,455,1,26.05,,,,NaN,,,,0 / 0,140605,2018-11-20 15:32:45:780
-1.762,-9.653,-0.105,481,1,26.21,,,,NaN,,,,0 / 0,140706,2018-11-20 15:32:45:881
-1.743,-9.682,-0.086,467,1,26.21,,,,NaN,,,,0 / 0,140806,2018-11-20 15:32:45:981
-1.714,-9.72,-0.028,463,1,26.21,,,,NaN,,,,0 / 0,140906,2018-11-20 15:32:46:081
-1.743,-9.596,-0.201,462,1,30.02,,,,NaN,,,,0 / 0,141006,2018-11-20 15:32:46:181
-1.79,-9.692,0.038,454,1,30.02,,,,NaN,,,,0 / 0,141105,2018-11-20 15:32:46:280
-1.723,-9.653,-0.067,458,1,30.02,,,,NaN,,,,0 / 0,141205,2018-11-20 15:32:46:380
-1.723,-9.663,-0.105,463,1,28.33,,,,NaN,,,,0 / 0,141305,2018-11-20 15:32:46:480
-1.695,-9.625,-0.009,462,1,28.33,,,,NaN,,,,0 / 0,141405,2018-11-20 15:32:46:580
-1.714,-9.634,-0.067,452,1,28.33,,,,NaN,,,,0 / 0,141506,2018-11-20 15:32:46:681
-1.637,-9.577,-0.172,446,1,27.09,,,,NaN,,,,0 / 0,141606,2018-11-20 15:32:46:781
-1.704,-9.663,-0.162,449,1,27.09,,,,NaN,,,,0 / 0,141706,2018-11-20 15:32:46:881
-1.733,-9.634,-0.21,472,1,27.09,,,,NaN,,,,0 / 0,141805,2018-11-20 15:32:46:980
-1.714,-9.682,-0.047,451,1,29.33,,,,NaN,,,,0 / 0,141905,2018-11-20 15:32:47:080
-1.733,-9.625,-0.067,446,1,29.33,,,,NaN,,,,0 / 0,142005,2018-11-20 15:32:47:180
-1.848,-9.672,-0.009,442,1,29.33,,,,NaN,,,,0 / 0,142105,2018-11-20 15:32:47:280
-1.781,-9.653,0.067,455,1,27.66,,,,NaN,,,,0 / 0,142206,2018-11-20 15:32:47:381
-1.647,-9.692,0,449,1,27.66,,,,NaN,,,,0 / 0,142306,2018-11-20 15:32:47:481
-1.57,-9.567,-0.086,443,1,27.66,,,,NaN,,,,0 / 0,142406,2018-11-20 15:32:47:581
-1.57,-9.672,-0.028,451,1,28.92,,,,NaN,,,,0 / 0,142505,2018-11-20 15:32:47:680
-1.685,-9.672,-0.191,441,1,28.92,,,,NaN,,,,0 / 0,142606,2018-11-20 15:32:47:781
-1.695,-9.672,-0.114,443,1,28.92,,,,NaN,,,,0 / 0,142706,2018-11-20 15:32:47:881
-1.771,-9.625,-0.287,446,1,30.63,,,,NaN,,,,0 / 0,142805,2018-11-20 15:32:47:980
-1.857,-9.701,-0.114,452,1,30.63,,,,NaN,,,,0 / 0,142905,2018-11-20 15:32:48:080
-1.781,-9.701,-0.239,468,1,30.63,,,,NaN,,,,0 / 0,143005,2018-11-20 15:32:48:180
-1.752,-9.701,-0.22,484,1,28.99,,,,NaN,,,,0 / 0,143105,2018-11-20 15:32:48:280
-1.762,-9.653,-0.162,476,1,28.99,,,,NaN,,,,0 / 0,143206,2018-11-20 15:32:48:381
-1.647,-9.644,-0.143,487,1,28.99,,,,NaN,,,,0 / 0,143306,2018-11-20 15:32:48:481
-1.8,-9.692,-0.076,482,1,30.3,,,,NaN,,,,0 / 0,143406,2018-11-20 15:32:48:581
-1.704,-9.682,-0.067,487,1,30.3,,,,NaN,,,,0 / 0,143505,2018-11-20 15:32:48:680
-1.666,-9.653,-0.105,484,1,30.3,,,,NaN,,,,0 / 0,143605,2018-11-20 15:32:48:780
-1.733,-9.663,-0.067,479,1,30.1,,,,NaN,,,,0 / 0,143705,2018-11-20 15:32:48:880
-1.666,-9.701,-0.181,468,1,30.1,,,,NaN,,,,0 / 0,143806,2018-11-20 15:32:48:981
-1.81,-9.682,-0.057,461,1,30.1,,,,NaN,,,,0 / 0,143906,2018-11-20 15:32:49:081
-1.685,-9.625,-0.086,458,1,30.93,,,,NaN,,,,0 / 0,144006,2018-11-20 15:32:49:181
-1.695,-9.529,-0.172,461,1,30.93,,,,NaN,,,,0 / 0,144105,2018-11-20 15:32:49:280
-1.618,-9.605,-0.239,443,1,30.93,,,,NaN,,,,0 / 0,144205,2018-11-20 15:32:49:380
-1.666,-9.653,-0.181,451,1,31.72,,,,NaN,,,,0 / 0,144305,2018-11-20 15:32:49:480
-1.714,-9.605,-0.181,459,1,31.72,,,,NaN,,,,0 / 0,144405,2018-11-20 15:32:49:580
-1.81,-9.625,-0.067,459,1,31.72,,,,NaN,,,,0 / 0,144505,2018-11-20 15:32:49:680
-1.8,-9.625,-0.095,457,1,35.13,,,,NaN,,,,0 / 0,144605,2018-11-20 15:32:49:780
-1.647,-9.557,-0.229,467,1,35.13,,,,NaN,,,,0 / 0,144705,2018-11-20 15:32:49:880
-1.647,-9.644,-0.344,471,1,35.13,,,,NaN,,,,0 / 0,144805,2018-11-20 15:32:49:980
-1.695,-9.644,-0.296,443,1,30.39,,,,NaN,,,,0 / 0,144906,2018-11-20 15:32:50:081
-1.628,-9.682,-0.105,456,1,30.39,,,,NaN,,,,0 / 0,145006,2018-11-20 15:32:50:181
-1.628,-9.663,-0.057,446,1,30.39,,,,NaN,,,,0 / 0,145106,2018-11-20 15:32:50:281
-1.628,-9.596,-0.344,454,1,32.89,,,,NaN,,,,0 / 0,145205,2018-11-20 15:32:50:380
-1.608,-9.644,-0.335,445,1,32.89,,,,NaN,,,,0 / 0,145305,2018-11-20 15:32:50:480
-1.561,-9.605,-0.335,452,1,32.89,,,,NaN,,,,0 / 0,145406,2018-11-20 15:32:50:581
-1.656,-9.768,-0.258,451,1,29.24,,,,NaN,,,,0 / 0,145506,2018-11-20 15:32:50:681
-1.79,-9.644,-0.22,449,1,29.24,,,,NaN,,,,0 / 0,145606,2018-11-20 15:32:50:781
-1.81,-9.634,-0.095,433,1,29.24,,,,NaN,,,,0 / 0,145705,2018-11-20 15:32:50:880
-1.704,-9.653,0.028,443,1,30.62,,,,NaN,,,,0 / 0,145805,2018-11-20 15:32:50:980
-1.608,-9.605,-0.028,431,1,30.62,,,,NaN,,,,0 / 0,145906,2018-11-20 15:32:51:081
-1.57,-9.577,-0.124,450,1,30.62,,,,NaN,,,,0 / 0,146006,2018-11-20 15:32:51:181
-1.58,-9.605,-0.076,456,1,30.62,,,,NaN,,,,0 / 0,146106,2018-11-20 15:32:51:281
-1.541,-9.653,-0.076,437,1,31.37,,,,NaN,,,,0 / 0,146206,2018-11-20 15:32:51:381
-1.714,-9.682,-0.047,440,1,31.37,,,,NaN,,,,0 / 0,146305,2018-11-20 15:32:51:480
-1.714,-9.701,0,435,1,31.37,,,,NaN,,,,0 / 0,146405,2018-11-20 15:32:51:580
-1.58,-9.663,-0.21,445,1,31.51,,,,NaN,,,,0 / 0,146505,2018-11-20 15:32:51:680
-1.666,-9.644,-0.095,443,1,31.51,,,,NaN,,,,0 / 0,146606,2018-11-20 15:32:51:781
-1.685,-9.615,-0.028,440,1,31.51,,,,NaN,,,,0 / 0,146706,2018-11-20 15:32:51:881
-1.695,-9.701,0,436,1,33.12,,,,NaN,,,,0 / 0,146806,2018-11-20 15:32:51:981
-1.637,-9.596,-0.067,446,1,33.12,,,,NaN,,,,0 / 0,146905,2018-11-20 15:32:52:080
-1.618,-9.577,-0.028,446,1,33.12,,,,NaN,,,,0 / 0,147005,2018-11-20 15:32:52:180
-1.618,-9.644,-0.153,439,1,45.58,,,,NaN,,,,0 / 0,147105,2018-11-20 15:32:52:280
-1.656,-9.653,-0.105,457,1,45.58,,,,NaN,,,,0 / 0,147205,2018-11-20 15:32:52:380
-1.503,-9.548,-0.239,427,1,45.58,,,,NaN,,,,0 / 0,147305,2018-11-20 15:32:52:480
-1.676,-9.663,-0.181,459,1,47.7,,,,NaN,,,,0 / 0,147405,2018-11-20 15:32:52:580
-1.723,-9.672,-0.105,432,1,47.7,,,,NaN,,,,0 / 0,147506,2018-11-20 15:32:52:681
-1.608,-9.586,-0.162,448,1,47.7,,,,NaN,,,,0 / 0,147606,2018-11-20 15:32:52:781
-1.771,-9.711,-0.038,440,1,38.29,,,,NaN,,,,0 / 0,147706,2018-11-20 15:32:52:881
-1.676,-9.625,-0.076,432,1,38.29,,,,NaN,,,,0 / 0,147806,2018-11-20 15:32:52:981
-1.57,-9.663,-0.172,435,1,38.29,,,,NaN,,,,0 / 0,147905,2018-11-20 15:32:53:080
-1.608,-9.653,-0.153,447,1,35.38,,,,NaN,,,,0 / 0,148005,2018-11-20 15:32:53:180
-1.666,-9.682,-0.028,445,1,35.38,,,,NaN,,,,0 / 0,148105,2018-11-20 15:32:53:280
-1.723,-9.557,-0.249,439,1,35.38,,,,NaN,,,,0 / 0,148206,2018-11-20 15:32:53:381
-1.819,-9.605,-0.383,431,1,38.21,,,,NaN,,,,0 / 0,148306,2018-11-20 15:32:53:481
-1.551,-9.567,-0.287,444,1,38.21,,,,NaN,,,,0 / 0,148406,2018-11-20 15:32:53:581
-1.637,-9.644,-0.383,450,1,38.21,,,,NaN,,,,0 / 0,148506,2018-11-20 15:32:53:681
-1.877,-9.72,-0.526,443,1,33.6,,,,NaN,,,,0 / 0,148606,2018-11-20 15:32:53:781
-1.551,-9.663,-0.162,440,1,33.6,,,,NaN,,,,0 / 0,148706,2018-11-20 15:32:53:881
-1.867,-9.625,-0.574,430,1,33.6,,,,NaN,,,,0 / 0,148806,2018-11-20 15:32:53:981
-1.79,-9.625,-0.172,432,1,31.87,,,,NaN,,,,0 / 0,148906,2018-11-20 15:32:54:081
-1.608,-9.538,-0.373,440,1,31.87,,,,NaN,,,,0 / 0,149005,2018-11-20 15:32:54:180
-1.666,-9.577,-0.478,433,1,31.87,,,,NaN,,,,0 / 0,149105,2018-11-20 15:32:54:280
-1.695,-9.586,-0.45,450,1,41.95,,,,NaN,,,,0 / 0,149205,2018-11-20 15:32:54:380
-1.656,-9.663,-0.44,458,1,41.95,,,,NaN,,,,0 / 0,149306,2018-11-20 15:32:54:481
-1.733,-9.682,-0.344,437,1,41.95,,,,NaN,,,,0 / 0,149406,2018-11-20 15:32:54:581
-1.57,-9.586,-0.545,458,1,31.26,,,,NaN,,,,0 / 0,149506,2018-11-20 15:32:54:681
-1.733,-9.634,-0.421,444,1,31.26,,,,NaN,,,,0 / 0,149605,2018-11-20 15:32:54:780
-1.79,-9.692,-0.354,439,1,31.26,,,,NaN,,,,0 / 0,149705,2018-11-20 15:32:54:880
-1.771,-9.672,-0.316,436,1,30.31,,,,NaN,,,,0 / 0,149805,2018-11-20 15:32:54:980
-1.695,-9.644,-0.306,443,1,30.31,,,,NaN,,,,0 / 0,149906,2018-11-20 15:32:55:081
-1.695,-9.692,-0.306,437,1,30.31,,,,NaN,,,,0 / 0,150006,2018-11-20 15:32:55:181
-1.81,-9.759,-0.316,442,1,30.01,,,,NaN,,,,0 / 0,150106,2018-11-20 15:32:55:281
-1.647,-9.615,-0.43,437,1,30.01,,,,NaN,,,,0 / 0,150205,2018-11-20 15:32:55:380
-1.762,-9.548,-0.354,435,1,30.01,,,,NaN,,,,0 / 0,150306,2018-11-20 15:32:55:481
-1.676,-9.596,-0.344,436,1,29.89,,,,NaN,,,,0 / 0,150405,2018-11-20 15:32:55:580
-1.637,-9.462,-0.565,445,1,29.89,,,,NaN,,,,0 / 0,150505,2018-11-20 15:32:55:680
-1.637,-9.653,-0.411,425,1,29.89,,,,NaN,,,,0 / 0,150606,2018-11-20 15:32:55:781
-1.704,-9.557,-0.383,456,1,30.53,,,,NaN,,,,0 / 0,150706,2018-11-20 15:32:55:881
-1.656,-9.615,-0.335,443,1,30.53,,,,NaN,,,,0 / 0,150806,2018-11-20 15:32:55:981
